time_sec,x,y,z,vx,vy,vz,ax,ay,az,roll,pitch,yaw,angular_x,angular_y,angular_z,voltage_v,current_a,remaining,motor_1,motor_2,motor_3,motor_4
0.0,0.6175445,0.18469323,0.023776606,-0.003071032,0.0005175042,0.006095849,0.00031150738,-0.0010720723,0.0017378478,0.0013682797861845801,-0.005957944426022349,0.05746696389119292,0.00028430123,-0.0004141988,0.00072663615,16.2,-1.0,0.9999466,0.0019999999,0.0,0.0019999999,0.0
0.1,0.6187621,0.1855486,0.024121836,-0.0019852389,0.001684426,0.006235856,0.0006089776,0.0046785264,0.006556976,0.001399841600290669,-0.006019380258557999,0.057470019761143486,0.0005106225,-0.00025184697,0.00065353425,16.2,-1.0,0.9999466,0.002,0.0,0.002,0.0
0.2,0.6200987,0.18618184,0.024255529,-0.00042654763,0.0024526953,0.0064310036,0.004814126,0.0052990606,0.0016549601,0.0014225577368385503,-0.006061041990362416,0.057475558297196847,-0.00044079078,-8.780942e-05,0.0002834411,16.19436,-1.0,0.99966145,0.0019999994,0.0,0.0019999999,0.0
0.30000000000000004,0.6216963,0.18674694,0.024211854,0.0011669493,0.0030528035,0.006506731,0.0038331999,-0.0036901808,-0.007824506,0.0014199429019348799,-0.006150404684915181,0.05749420061515166,-0.0010326799,-0.0013716252,-2.3911974e-05,16.188362,-1.0,0.9988289,0.0019999999,0.0,0.0019999999,0.0
0.4,0.62342924,0.18738964,0.0240964,0.003004082,0.003919274,0.0068362993,0.0035510291,0.0023424753,-0.0010798684,0.0014505053751275167,-0.006181106384508744,0.05747861931128131,0.00023512432,-0.0004711971,0.0006169312,16.188362,-1.0,0.9988289,0.002,0.0,0.002,0.0
0.5,0.625084,0.18800843,0.0240556,0.0045115147,0.0047037946,0.0070320847,0.0009005252,-0.005517429,0.0001285225,0.001474752773016766,-0.006262175296580696,0.05748354403721007,6.714194e-05,-0.0011251034,-9.613125e-05,16.188362,-1.0,0.9988289,0.0019999999,0.0,0.0019999999,0.0
0.6000000000000001,0.6262764,0.18861888,0.023660362,0.005710911,0.005647173,0.007316549,0.0017665005,0.00039541553,-0.003297813,0.0014909245933358189,-0.0062903007535851955,0.057484530636539,-0.0005242029,0.00057294755,-0.0006792057,16.182362,-1.0,0.99754715,0.0019999996,0.0,0.0019999996,0.0
0.7000000000000001,0.62725186,0.18960187,0.023150831,0.0065318253,0.0068719243,0.0072904467,0.00974836,0.008990776,0.0075693238,0.001512316444990815,-0.006304799290233426,0.0574809615983882,0.00010113714,-0.0005627838,-0.0007652117,16.176363,-1.0,0.9958916,0.0020000006,1.1641532e-10,0.0019999996,0.0
0.8,0.6280025,0.19041069,0.02294211,0.007212642,0.007773883,0.0073753125,0.006570082,-0.0053364644,-0.0041089947,0.0015421166666892555,-0.0063138290763625005,0.05747044042585112,-0.00087066356,0.0005019432,-0.00026017334,16.176363,-1.0,0.9958916,0.0019999999,0.0,0.0019999999,0.0
0.9,0.62847596,0.19074698,0.022935212,0.0074715186,0.008266591,0.0076471562,0.00653903,0.001523836,-0.0029420478,0.0015477415380090015,-0.006307598214279928,0.057477333186586814,-0.00013635361,0.0004504727,-0.00050723256,16.176363,-1.0,0.9958916,0.002,0.0,0.002,0.0
1.0,0.6289468,0.19085144,0.02316399,0.007925149,0.0084820185,0.007714139,0.009116616,0.009229957,0.0004963949,0.0015787205165907505,-0.00632610635076132,0.05747826718657736,0.00027037394,0.00022962011,-9.004989e-05,16.170362,-1.0,0.9939337,0.0019999996,0.0,0.0019999996,0.0
1.1,0.62956434,0.19088139,0.023657575,0.008469881,0.0086421985,0.0076542664,0.0064793234,-0.005323361,0.00013923271,0.0015612980537040417,-0.006341566098839286,0.057473004527830114,-0.00012218957,5.4691824e-05,-0.00020218355,16.164364,-1.0,0.99172497,0.022640333,0.015750345,0.021109726,0.017257497
1.2000000000000002,0.63067037,0.19134398,0.024216518,0.009302381,0.008843888,0.007676455,0.0017446271,-0.004773389,-0.006328802,0.001569889986771312,-0.006360516256019498,0.05749815804560897,0.0006228522,-0.00025526513,0.00030531883,16.164364,-1.0,0.99172497,0.041437443,0.033845145,0.039640117,0.03577548
1.3,0.6322944,0.19203354,0.024951622,0.010479324,0.009210847,0.00788175,0.002801842,0.0001705266,-0.003755558,0.001606951039326467,-0.006373306300748182,0.0575082385943892,-0.00019747745,-5.5669385e-05,-0.00072076387,16.158363,-1.0,0.9893179,0.060487907,0.053292345,0.059257433,0.05463966
1.4000000000000001,0.6342005,0.19293821,0.02593711,0.011988038,0.009572688,0.007915149,0.00861923,0.0021243484,0.0015655531,0.0015906567255277394,-0.00639162237077668,0.05747109989625706,1.0813925e-05,0.00045968316,-0.00030897418,16.158363,-1.0,0.9893179,0.08374254,0.076415114,0.08195308,0.078029215
1.5,0.63562626,0.19391279,0.027265385,0.013056294,0.010157212,0.008054376,0.004179228,-0.0019197031,0.00032782552,0.0015760872009048744,-0.0063867361773218305,0.057471078662028795,-0.00024405225,0.00042709953,0.00072025147,16.158363,-1.0,0.9893179,0.10727592,0.09983693,0.10569884,0.101330444
1.6,0.6359454,0.19520517,0.029372096,0.012964088,0.01064785,0.008094635,0.0038608394,0.006126073,-0.0045397314,0.0015798591548680154,-0.006371891518017174,0.057454163114045366,-0.00025656557,-0.0006063995,0.00023815289,16.152365,-1.0,0.986742,0.13492763,0.12770587,0.13348117,0.12900677
1.7000000000000002,0.6346413,0.19609466,0.031374514,0.011456054,0.0109981485,0.0081468,0.0011295687,0.0037019637,0.0048419456,0.0015822578328111422,-0.006325738747013722,0.057477947999446936,-1.37633215e-05,-0.0001300121,0.000179103,16.146364,-1.0,0.98402977,0.1623224,0.15568957,0.16098759,0.15708113
1.8,0.63238186,0.19668444,0.033031136,0.009354624,0.011449511,0.008090991,0.0059125065,0.0063401978,0.00052200624,0.0016070033672428978,-0.006213433447232485,0.05746949959096537,-9.1405294e-05,4.2064767e-05,-0.0013249317,16.146364,-1.0,0.98402977,0.19486302,0.18792015,0.19324021,0.18948312
1.9000000000000001,0.6289478,0.1977741,0.03477128,0.0065483213,0.01203611,0.008043326,0.00028277462,0.0004034109,-0.00149291,0.0016031716826879975,-0.006114827157394938,0.05747230976104516,-0.0009241331,-0.0001358375,-0.00090687873,16.140366,-1.0,0.98120594,0.22716036,0.21960586,0.22561382,0.22109585
2.0,0.6251241,0.19872801,0.03633055,0.0033893203,0.01254087,0.008275983,-0.00050320517,0.0018888366,0.0020931473,0.0016179257927040353,-0.006001359056888412,0.05746593489677415,-0.00022159463,0.0008279048,-0.00097654085,16.140366,-1.0,0.98120594,0.2643909,0.25649863,0.26232186,0.2584432
2.1,0.6212933,0.19914311,0.037598163,0.0006399758,0.0123751005,0.008417004,-0.003581417,0.00028423162,-0.004390254,0.0016306081145293907,-0.0059270612802055376,0.05747555147097454,-0.0005820615,0.0001980758,-0.00020457729,16.140366,-1.0,0.98120594,0.3011805,0.2922764,0.29913557,0.29431742
2.2,0.6175348,0.19949618,0.03838992,-0.0020980302,0.012228145,0.008325983,-0.0053536147,0.009578823,-0.0033476388,0.0016279864820511565,-0.00583729842008753,0.05749524164725054,0.00017321421,-6.836915e-05,0.0011828522,16.134365,-1.0,0.9782896,0.34321374,0.33335513,0.34065253,0.3360619
2.3000000000000003,0.614337,0.19920589,0.038481653,-0.004144296,0.01131664,0.0078087635,0.0018878854,0.0071614394,0.0018794088,0.001591657681569261,-0.0057817375965448226,0.05749510231379526,-0.0006426336,-8.8881934e-05,0.00042879814,16.128366,-1.0,0.9752989,0.3836977,0.37375784,0.381473,0.37603664
2.4000000000000004,0.6114959,0.19812985,0.03855881,-0.005917938,0.00959954,0.007859818,-0.0033205212,-0.0044370578,-0.0012964009,0.0015317473428469418,-0.005736419161378531,0.05751071171372873,0.00047737494,-0.0003231534,0.00020313963,16.128366,-1.0,0.9752989,0.39628974,0.38532552,0.39381504,0.38796747
2.5,0.60881203,0.19675924,0.03894162,-0.007364586,0.007786043,0.007942381,0.0019814505,0.0019248322,0.00039394942,0.0014573206570526126,-0.005723233154120089,0.05748234546645876,-0.00090321456,-0.00083382515,-0.00088970334,16.128366,-1.0,0.9752989,0.4093624,0.39805695,0.407205,0.40017468
2.6,0.60664034,0.19525349,0.039629772,-0.008122498,0.0057229907,0.007970667,-0.0011427837,-0.0016894218,0.0010114162,0.0014219564243939514,-0.0057079733021115344,0.057441083755879384,0.0010908144,-4.797653e-05,-0.00072880805,16.122366,-1.0,0.97224617,0.42260996,0.4098905,0.41945538,0.41281155
2.7,0.6056014,0.19414957,0.040122494,-0.008152018,0.004529543,0.007866194,0.0076830797,0.0007392209,0.00018719582,0.0013742084471210498,-0.005743554946309561,0.05742621239763766,0.00059505564,-0.0007000243,-0.00051758817,16.116367,-1.0,0.9691429,0.43731204,0.42350045,0.43409896,0.42655712
2.8000000000000003,0.6056611,0.19367705,0.04068692,-0.007325988,0.0036856192,0.007816973,-0.00063121296,-0.0026444085,0.003853347,0.0013622124966895218,-0.005796015861157967,0.0574265674728581,2.0372172e-05,-0.00020323585,0.00034999684,16.116367,-1.0,0.9691429,0.45107844,0.43681654,0.4482323,0.4396075
2.9000000000000004,0.60616416,0.19409427,0.04053712,-0.006327902,0.0038487897,0.0075582373,-0.0037333446,0.0017614329,0.0031883826,0.0013978273189498055,-0.005843561065790633,0.05743037008882003,0.0004552208,0.00018538,0.0005959006,16.110367,-1.0,0.96599865,0.46696788,0.45194578,0.4638313,0.45506614
3.0,0.606402,0.19489422,0.039779425,-0.005054407,0.0045948313,0.007118896,-0.001219485,-0.000746319,0.0036461276,0.0014042155349005437,-0.005870153544695558,0.057438321647685524,-0.00086187664,0.0006826482,0.0005364936,16.110367,-1.0,0.96599865,0.4817595,0.46616858,0.47855046,0.4694353
3.1,0.60630363,0.19588345,0.038275316,-0.004481365,0.0052047814,0.0065538776,-0.0037010103,0.0016010662,-0.00021141021,0.0014436695108504427,-0.005896569125017631,0.05745928522751629,0.00029684708,0.00032878213,-0.00015914757,16.110367,-1.0,0.96599865,0.49929667,0.48233324,0.4952787,0.48642918
3.2,0.60596055,0.19678503,0.03614746,-0.0040665376,0.005723212,0.0058219912,-0.0035438333,0.00041918608,0.0013872049,0.0014770177870863307,-0.005925907415445802,0.05747489079668827,-0.00051488634,-0.0012002755,-1.145323e-06,16.104368,-1.0,0.9628191,0.5153626,0.4973429,0.51162124,0.501142
3.3000000000000003,0.60510373,0.19747178,0.034231454,-0.0038972558,0.00614861,0.0052084248,-0.0022437815,0.0006593145,-0.0010370276,0.0015130768211381862,-0.005904185519012164,0.05751448086355492,0.00025895858,0.00047443708,0.00039084576,16.098368,-1.0,0.9596119,0.53398347,0.5151907,0.5295888,0.519783
3.4000000000000004,0.6039963,0.19812004,0.032707646,-0.0042522424,0.006621526,0.0048083067,-0.0017721485,0.0033274463,-0.010738614,0.0015352336751779435,-0.005888377901932479,0.05751867342364685,-0.00039123918,-0.0002094552,0.0006035616,16.098368,-1.0,0.9596119,0.551958,0.5325797,0.5476179,0.536988
3.5,0.60282946,0.19898815,0.031311095,-0.0048706857,0.007257683,0.0043735923,-0.008244383,0.005717838,-0.0055362466,0.001556247741505988,-0.005922825613315855,0.057538346591269274,-0.00063694257,-0.0008658577,0.00054875115,16.098368,-1.0,0.9596119,0.5710539,0.5509426,0.5667282,0.55536276
3.6,0.6015453,0.20006873,0.029881254,-0.0053316522,0.008018725,0.003979045,0.0022812854,0.0063193655,-5.587935e-05,0.0015962781408966798,-0.00590875968562977,0.05753687328929594,0.0004284666,0.00028636263,-0.0001830669,16.09237,-1.0,0.9563818,0.5894751,0.5681476,0.58419335,0.57349753
3.7,0.6005058,0.20121142,0.028029054,-0.00567238,0.008677814,0.003348094,0.000385211,0.00777521,-1.6298143e-05,0.0016079097877188529,-0.005874634651023741,0.05753700503087116,7.775888e-05,0.00038925032,1.6055415e-05,16.086369,-1.0,0.9531355,0.6109402,0.5886959,0.60541636,0.5942169
3.8000000000000003,0.59910625,0.20248902,0.025658771,-0.006488449,0.009545994,0.002954674,-0.00018050012,0.002493707,-0.0017080455,0.001657787749346914,-0.0058074442839066215,0.05757503002279722,-0.0006044774,-0.00020422554,0.0010170846,16.086369,-1.0,0.9531355,0.6301157,0.60711926,0.624643,0.6128692
3.9000000000000004,0.59702605,0.20370132,0.023556605,-0.007703433,0.010593327,0.0027053845,0.0047929967,-0.0004737112,0.0045420597,0.001715848216139253,-0.005765734269676816,0.05758410111174957,-5.9080885e-05,2.2315458e-05,-9.401876e-05,16.08037,-1.0,0.949872,0.6530544,0.62926275,0.6469768,0.63548267
4.0,0.5948477,0.20478006,0.022138283,-0.008960355,0.011597696,0.0025308104,0.00090973295,0.0062687765,-0.0019171274,0.0017542324281669265,-0.005739717994336688,0.05759008040540207,0.00015870183,-0.00033366555,-0.00013554197,16.08037,-1.0,0.949872,0.6738388,0.648642,0.66687953,0.6556208
4.1000000000000005,0.59262323,0.20553043,0.020414948,-0.010222774,0.012412595,0.0022794148,-0.0029137516,0.002121409,0.00965828,0.0017923536192690894,-0.005728891970654328,0.05759242160748631,0.000103327155,-0.00091128284,-0.00094111415,16.07437,-1.0,0.94659424,0.72786796,0.70196426,0.7206319,0.7092282
4.2,0.5912721,0.20594321,0.018870234,-0.015007107,0.0117107015,-0.0011124378,-0.09176925,-0.0465745,-0.082785256,0.0017792962382326782,-0.0049960046218299635,0.05746789249831374,-0.002182761,0.025281828,-0.0058923396,16.07437,-1.0,0.94659424,0.74408144,0.7284619,0.7371073,0.73454607
4.3,0.5902265,0.20577468,0.016139701,-0.018495604,0.009662004,-0.030031675,-0.050082937,-0.012345328,-0.44090438,-0.00029789598754910185,0.0006625089573470415,0.056688503280973544,-0.02621852,0.058649573,-0.006859659,16.07437,-1.0,0.94659424,0.7547514,0.75602597,0.75267464,0.7528644
4.4,0.58921635,0.20508015,0.007894248,-0.026712356,0.005536739,-0.09347989,-0.10989647,-0.04871333,-0.7055606,-0.0024123020828344228,0.005233808983346904,0.05613559981694128,-0.014538262,0.032398764,-0.0050941464,16.06837,-1.0,0.94330883,0.75975275,0.76240957,0.7577792,0.7591024
4.5,0.58820873,0.2032621,-0.007336214,-0.036729142,-0.0004985434,-0.1681323,-0.11870627,-0.049422607,-0.79833573,-0.0032881937174154053,0.006812954717905699,0.055815053067920194,-0.0036279494,0.0039736484,-0.0021697022,16.06837,-1.0,0.94330883,0.7671728,0.7682419,0.76574594,0.7656185
4.6000000000000005,0.5866065,0.2002132,-0.033374995,-0.047920126,-0.008023375,-0.2575754,-0.11692581,-0.04881442,-0.8778446,-0.003216530007372112,0.006263147967925477,0.055715884906519235,0.006045864,-0.012114788,-0.00045828102,16.06237,-1.0,0.94001484,0.7651136,0.76570165,0.7640693,0.7642044
4.7,0.58328426,0.19634275,-0.06965417,-0.0582554,-0.014905272,-0.35042194,-0.10067448,-0.0503565,-0.8743209,-0.0022736130293802338,0.004543464890809987,0.05579994258198086,0.012688311,-0.02182213,0.0006289873,16.056372,-1.0,0.93670845,0.76915824,0.7689109,0.76845855,0.76846546
4.800000000000001,0.5786032,0.19224176,-0.1116811,-0.06614483,-0.01977822,-0.43701836,-0.074584164,-0.024570825,-0.8972105,-0.0009032845433653361,0.0021083992682763945,0.05594373893474796,0.015144321,-0.027038755,0.001072281,16.056372,-1.0,0.93670845,0.7640157,0.76481915,0.7638083,0.76450866
4.9,0.572051,0.1875971,-0.16633129,-0.072050124,-0.0228413,-0.5294543,-0.03393108,-0.002428589,-0.861803,0.0006711244268665564,-0.0011638729659615816,0.056077068300078546,0.017688604,-0.036738485,0.0006188317,16.050371,-1.0,0.933403,0.76808643,0.76825666,0.7672008,0.7685858
5.0,0.56495804,0.18341012,-0.22536999,-0.074097954,-0.023522198,-0.6141133,0.004011066,0.01732827,-0.86849874,0.0023589999098878704,-0.005672123020664651,0.05626363128396165,0.018881327,-0.05394606,0.0014256868,16.050371,-1.0,0.933403,0.7621296,0.7634136,0.76166815,0.763676
5.1000000000000005,0.5570301,0.17900464,-0.29835558,-0.070485994,-0.02163784,-0.7048581,0.076992676,0.036004968,-0.852168,0.0042962321209053375,-0.013121077520021375,0.05644655610050089,0.021579167,-0.10123934,0.0012216525,16.044373,-1.0,0.9300947,0.76448905,0.77105737,0.76447934,0.7709655
5.2,0.5503823,0.17541917,-0.37425607,-0.056616906,-0.017309409,-0.78537065,0.21931832,0.06295052,-0.67762,0.006385929786987228,-0.02848275730423531,0.056498919953687624,0.019248674,-0.18801783,0.0013414342,16.044373,-1.0,0.9300947,0.7489695,0.74526876,0.74777293,0.7457291
5.300000000000001,0.545982,0.17274544,-0.46322972,-0.023677005,-0.009729444,-0.8219803,0.3811878,0.08393716,-0.049918886,0.007893596533171518,-0.045190992578392555,0.05655696885055722,0.011574644,-0.12759234,0.0020928602,16.038372,-1.0,0.92677784,0.727783,0.722006,0.7276899,0.72185427
5.4,0.54591095,0.17148282,-0.5454246,0.016526949,-0.0010272233,-0.80214465,0.4252538,0.09386466,0.434251,0.008962936321346936,-0.05200037406684117,0.056640218922849185,0.011586173,-0.013043822,0.0021766268,16.038372,-1.0,0.92677784,0.7064036,0.69544995,0.7065022,0.69589067
5.5,0.5502913,0.17103583,-0.62279004,0.05702887,0.00819886,-0.75478387,0.3798438,0.1031673,0.48747844,0.010114735551696273,-0.04601299040995644,0.056690166540465436,0.010719804,0.111957304,0.0013104792,16.038372,-1.0,0.92677784,0.7148141,0.70463556,0.7122308,0.7082033
5.6000000000000005,0.5602256,0.17130293,-0.7008141,0.09144565,0.017972592,-0.72321945,0.22765797,0.09045779,0.16019027,0.008818867027875049,-0.028427004132655635,0.05664365933643056,-0.028781729,0.22552986,-0.00012636032,16.032373,-1.0,0.9234581,0.72247034,0.7157983,0.72209483,0.71700114
5.7,0.5737105,0.17217153,-0.7762456,0.104164734,0.023509564,-0.71877724,-0.036554568,0.0392123,-0.020365695,0.005374788144271305,-0.0015193663224949477,0.05650382312111641,-0.034037724,0.29900825,0.00039941425,16.026373,-1.0,0.9201307,0.7294825,0.73051554,0.7302891,0.73011994
5.800000000000001,0.5863013,0.17279989,-0.84570384,0.08868168,0.023378216,-0.7198259,-0.3197594,-0.0056315013,0.00028870997,0.002277235832597889,0.02729304843960677,0.05621730042918872,-0.025409004,0.25509804,0.00062318513,16.026373,-1.0,0.9201307,0.7207979,0.7298459,0.7210459,0.7294565
5.9,0.5959653,0.1731951,-0.9208462,0.046223655,0.018836293,-0.71648335,-0.50464594,-0.04243213,0.05407538,5.468047035567599e-05,0.04537350065060845,0.055982390772239043,-0.017863551,0.11624879,0.0004891607,16.020374,-1.0,0.91680336,0.72290885,0.7316253,0.7226149,0.7317314
6.0,0.59891987,0.17344119,-0.989218,-0.0041433834,0.012952123,-0.7103174,-0.5365643,-0.055817336,0.06464729,-0.0019793895837185017,0.0486617874207235,0.055944827531892484,-0.025201147,-0.03637543,0.0007830045,16.020374,-1.0,0.91680336,0.71825784,0.72863966,0.71824443,0.728721
6.1000000000000005,0.59535474,0.17323415,-1.061695,-0.055337436,0.004557709,-0.7017374,-0.41144794,-0.08237107,0.1032818,-0.004853578316866472,0.03638857362065614,0.056211810985200734,-0.028940475,-0.19345531,0.0007230852,16.014374,-1.0,0.913476,0.7213735,0.7303063,0.72605425,0.7263072
6.2,0.5872457,0.17197755,-1.1276715,-0.08556589,-0.00428047,-0.69359815,-0.19603862,-0.063637964,0.056153625,-0.003922847789896487,0.013570549724779337,0.05668426881814039,0.04247909,-0.22230363,-0.000847848,16.014374,-1.0,0.913476,0.7255278,0.71767086,0.727206,0.71608305
6.300000000000001,0.57566065,0.16945036,-1.1981428,-0.097612195,-0.00901628,-0.684477,-0.025402302,-0.008393632,0.091749705,0.001046890525857293,-0.002091058906799405,0.057190417132317595,0.04449924,-0.11202576,-0.0014085782,16.008375,-1.0,0.9101486,0.7286176,0.7237187,0.7272729,0.72486025
6.4,0.5641961,0.1670209,-1.26187,-0.09812645,-0.008621853,-0.67543185,0.049270213,0.02953409,0.08654361,0.00441683966166743,-0.010455776871674241,0.05764671427690044,0.026073977,-0.06816769,-0.0003067555,16.008375,-1.0,0.9101486,0.7220682,0.7190517,0.7210499,0.7198907
6.5,0.5532193,0.16515122,-1.3243974,-0.092626736,-0.005469213,-0.6645179,0.093335055,0.053627197,0.12528244,0.006227159542746895,-0.015665541996104586,0.05802548651498948,0.012146199,-0.04162927,0.001029345,16.008375,-1.0,0.9101486,0.7256811,0.7236505,0.72541124,0.724068
6.6000000000000005,0.5427822,0.1641576,-1.3906091,-0.08211181,-0.0004105618,-0.6512576,0.12312168,0.058736145,0.11485582,0.007002933170111504,-0.01872594304661527,0.05821554375934546,0.003972668,-0.024161879,-0.00054375647,16.002375,-1.0,0.90682125,0.7201922,0.71877944,0.7198676,0.7191045
6.7,0.5341078,0.16453545,-1.4552339,-0.0687115,0.00582325,-0.63649666,0.14392841,0.06109888,0.14052725,0.007090807000229526,-0.020332193082749098,0.058272063817065324,-0.00078695145,-0.0110461395,0.00031867408,15.996375,-1.0,0.90349483,0.7244511,0.7229548,0.7237148,0.72354376
6.800000000000001,0.52773374,0.16608123,-1.5135409,-0.055209156,0.011747501,-0.6220997,0.14846148,0.060234405,0.13591348,0.006721090686869936,-0.020992024535365326,0.05822486456920591,-0.0052699624,-0.0022330522,-0.00012480663,15.996375,-1.0,0.90349483,0.7191834,0.718278,0.7187135,0.71849966
6.9,0.5227034,0.16904251,-1.5759138,-0.039758064,0.018156607,-0.6052573,0.14529137,0.056002684,0.16180797,0.00599580346671753,-0.0208686047684084,0.05811788910585418,-0.009979811,0.0041559683,0.00037140946,15.9903755,-1.0,0.90016747,0.7225887,0.72266716,0.72300947,0.7219043
7.0,0.5199977,0.17275773,-1.6325059,-0.025684444,0.023499578,-0.5890232,0.13716327,0.043119673,0.15973718,0.005038854692386082,-0.02020742724294441,0.05802815887792889,-0.009599867,0.009578397,-0.00022950892,15.9903755,-1.0,0.90016747,0.71808773,0.71681875,0.71718484,0.71746224
7.1000000000000005,0.5190206,0.17792402,-1.6921216,-0.010727538,0.028594302,-0.56929445,0.1280254,0.027246352,0.19163823,0.0038787620812109637,-0.01909153770267125,0.05800872728408259,-0.01315286,0.012612689,-7.285958e-05,15.984376,-1.0,0.8968401,0.72132397,0.721141,0.7213702,0.7211865
7.2,0.51948476,0.18304229,-1.7456553,0.0013345893,0.0320652,-0.54455775,0.115626276,0.016920421,0.4115356,0.002459669823158165,-0.01788758514052549,0.057967865584505854,-0.018982664,0.010469906,0.00015874564,15.984376,-1.0,0.8968401,0.7022899,0.7030279,0.70184696,0.70338905
7.300000000000001,0.5210123,0.18820676,-1.7988619,0.0127557665,0.033120196,-0.4753995,0.09226841,-0.009295248,0.8697211,0.00019970612009835548,-0.017411929585995873,0.05797749284163058,-0.022768067,0.0030842184,0.00023682545,15.978376,-1.0,0.8935127,0.6811036,0.6808046,0.68152654,0.6804346
7.4,0.52352756,0.19244516,-1.8386785,0.022375077,0.031837344,-0.3703498,0.08735137,-0.0247265,1.2607108,-0.0018430396356642449,-0.01686291573748242,0.058015140066171506,-0.01814286,0.006904765,0.00048598336,15.978376,-1.0,0.8935127,0.6647961,0.6653329,0.66526324,0.665062
7.5,0.5271213,0.19590113,-1.8663427,0.031394683,0.028719125,-0.25175238,0.08708638,-0.04077211,1.0340348,-0.003355050792790061,-0.01609590879905258,0.058029261656716104,-0.012348753,0.009138617,0.00041255166,15.978376,-1.0,0.8935127,0.6865483,0.6867444,0.6866553,0.6866579
7.6000000000000005,0.5322501,0.19880797,-1.8844994,0.041396197,0.023825385,-0.17140333,0.078929424,-0.046175946,0.52185076,-0.0043753212332763676,-0.015083191383880302,0.05801693898952344,-0.007493393,0.010637116,0.00030814513,15.972377,-1.0,0.89018536,0.7094415,0.70860654,0.7097033,0.708148
7.7,0.5381754,0.20084716,-1.8960546,0.050392766,0.017377911,-0.13770361,0.07241762,-0.059982613,0.12364377,-0.0048350505059121035,-0.013271080112353142,0.05800571630781637,0.0003010572,0.023386976,-0.00034768897,15.966377,-1.0,0.8868551,0.7251682,0.7262348,0.7261799,0.72495085
7.800000000000001,0.54395616,0.20210928,-1.9055206,0.056932632,0.011391699,-0.13879523,0.048834406,-0.05431847,-0.15285471,-0.004079590721032891,-0.010736333927423685,0.058027220055833766,0.011623138,0.025429195,0.00023947442,15.966377,-1.0,0.8868551,0.73659027,0.7370926,0.7370941,0.7366105
7.9,0.5502004,0.20304637,-1.9182898,0.06079025,0.006144847,-0.1628534,0.018209197,-0.04364749,-0.29936337,-0.002818613313582576,-0.008196529543662408,0.0580757121316767,0.012260766,0.025221372,-0.000113896596,15.960378,-1.0,0.88352203,0.7418964,0.7430656,0.7423546,0.74281555
8.0,0.55555147,0.20380981,-1.9340276,0.061428152,0.0028762885,-0.19074008,0.0015747681,-0.033033837,-0.27717182,-0.001603427293924628,-0.0060060780862492575,0.05806756613877377,0.0116106095,0.018471928,-0.00032096182,15.960378,-1.0,0.88352203,0.7381427,0.7378862,0.73770124,0.73821896
8.1,0.56063455,0.20422696,-1.9531075,0.059875034,0.00040429737,-0.20987077,-0.01846971,-0.022377903,-0.14957319,-0.0008411163677544123,-0.004495834668797048,0.05811452658410729,0.0033705125,0.009909989,0.00083872804,15.960378,-1.0,0.88352203,0.73253447,0.733439,0.7329154,0.7331494
8.200000000000001,0.5662815,0.2034925,-1.9761676,0.0577152,-0.0023750337,-0.21900053,-0.02538415,-0.023405874,-0.035804227,-0.0005690638797668892,-0.003869197083813538,0.05817934866958282,0.0030599425,0.0061477115,0.0014374728,15.954378,-1.0,0.8801899,0.7281605,0.7287543,0.72864914,0.728701
8.3,0.5720204,0.20211509,-2.0004416,0.055017363,-0.0052392455,-0.21967483,-0.026311463,-0.01706201,0.028911976,-0.00021667765798284372,-0.003321546619652742,0.05820108019956851,0.004288846,0.004291576,0.00040214718,15.948379,-1.0,0.8768568,0.72629595,0.7263694,0.726664,0.7263554
8.4,0.5768158,0.2009604,-2.0226898,0.05153703,-0.007135167,-0.21478198,-0.04516099,-0.008260613,0.06965501,0.0002753021886622729,-0.0028469222302138775,0.05821239178983278,0.0054003755,0.0047032684,-0.00019221347,15.948379,-1.0,0.8768568,0.7237853,0.7244737,0.7239849,0.7245464
8.5,0.5813197,0.1999651,-2.0441842,0.047899462,-0.008558229,-0.20691685,-0.028609082,-0.009273832,0.103374936,0.0007171817530311694,-0.002549901032193732,0.05820526741857839,0.0035735096,0.00045857223,0.00034284982,15.948379,-1.0,0.8768568,0.7238898,0.7240039,0.72414374,0.7238556
8.6,0.5861549,0.19856036,-2.0663166,0.044187594,-0.009707475,-0.19703072,-0.03912852,-0.0074197818,0.10452,0.0010485215139894272,-0.002470076377039986,0.05820427246430644,0.0030121177,0.00038913087,0.00053839636,15.942379,-1.0,0.87352467,0.7232191,0.7233798,0.7236189,0.7231085
8.700000000000001,0.59068555,0.19730291,-2.0866055,0.040568355,-0.010368546,-0.1863569,-0.042235285,-0.0027045647,0.101360954,0.0013925502999951374,-0.0023303276328544287,0.05823972050296651,0.0029648787,0.0024335803,0.0003278082,15.936379,-1.0,0.8701925,0.72387534,0.7243913,0.7241265,0.72448367
8.8,0.59398186,0.19680598,-2.1039457,0.036703836,-0.009975026,-0.17737804,-0.033601817,0.0026647751,0.08451985,0.0017659100294928774,-0.0021680983940037366,0.05820185805884829,0.004319859,0.0016039419,-0.0011777267,15.936379,-1.0,0.8701925,0.7244952,0.72393405,0.7234687,0.72498816
8.9,0.5968127,0.19711412,-2.1203566,0.032696575,-0.008844455,-0.16977106,-0.03448242,0.0031719217,0.06824452,0.0019502858474439576,-0.0022164430312756594,0.058152783171429204,-0.00019043367,-0.0007628497,-0.0002865881,15.936379,-1.0,0.8701925,0.7247719,0.72526735,0.72465587,0.72510064
9.0,0.5997009,0.1979168,-2.1376805,0.028745752,-0.007280313,-0.1615963,-0.035972007,-0.0013433545,0.077249944,0.0018226162457468337,-0.0022826272363747637,0.058134273525541846,-0.002604664,-0.0006640812,-0.00020341692,15.93038,-1.0,0.86685944,0.72458166,0.7247539,0.7246097,0.72448653
9.1,0.6022276,0.19892532,-2.1530309,0.025029937,-0.005965378,-0.15471512,-0.03693145,0.003082403,0.06740726,0.0016014670766145752,-0.0023992168350797424,0.0581057864397455,-0.0027517942,-0.0016896382,-0.0005497424,15.93038,-1.0,0.86685944,0.7254908,0.7251328,0.7250648,0.7252646
9.200000000000001,0.60476565,0.20044364,-2.1687512,0.021176595,-0.004546846,-0.14728177,-0.035057105,-0.0066859988,0.066455446,0.0012591875508722386,-0.0025650457046145743,0.05810300426354799,-0.0038888473,-0.0010758066,-0.0005617497,15.92438,-1.0,0.8635273,0.7248574,0.7249339,0.7245472,0.72502047
9.3,0.60724825,0.20188643,-2.1834226,0.017910315,-0.0035567482,-0.14021702,-0.041296687,-0.009378805,0.05906913,0.0008012518155989118,-0.0027627127762243353,0.0581423532474812,-0.005657372,-0.002341858,-0.00048039766,15.918381,-1.0,0.8601942,0.725685,0.72574806,0.7259956,0.7255104
9.4,0.6097079,0.20306201,-2.196229,0.015527604,-0.003459943,-0.13426018,-0.03556792,-0.006411524,0.058489382,0.00033232503415922424,-0.0028849285777359326,0.058165208800467855,-0.0040118108,-0.0006872811,8.7544766e-05,15.918381,-1.0,0.8601942,0.7252141,0.7252964,0.72520596,0.72545403
9.5,0.6119491,0.20400698,-2.2084236,0.013216093,-0.003362243,-0.12841977,-0.029304449,-0.013335082,0.060105693,-3.666798766385882e-05,-0.0029477376341501722,0.05817616761855255,-0.004359288,-0.0013662693,0.0004879264,15.918381,-1.0,0.8601942,0.7261995,0.72622335,0.7265682,0.7260394
9.600000000000001,0.6141228,0.2046164,-2.2213259,0.010455988,-0.0041031335,-0.12288466,-0.029679134,-0.01575694,0.041423827,-0.0003641230341909926,-0.003021938529466334,0.05818278599124555,-0.0030823476,-0.00025151897,-0.00045459505,15.912381,-1.0,0.85686207,0.72533506,0.72567004,0.7256395,0.7255418
9.700000000000001,0.6158907,0.20458902,-2.2340837,0.007429083,-0.005515016,-0.117468044,-0.032999802,-0.027855722,0.059660055,-0.0005552587013713962,-0.0030645766331332627,0.05817624323213274,0.00024162364,-0.0005539034,-0.0001451608,15.906382,-1.0,0.853529,0.7263321,0.72612065,0.72605014,0.7265204
9.8,0.61725825,0.20372234,-2.2451658,0.0049277535,-0.007536782,-0.11248837,-0.02350787,-0.01912477,0.045585908,-0.0005886874897981263,-0.003213104170940366,0.058168733724759406,0.00018408353,-0.0027523753,-0.00038556612,15.906382,-1.0,0.853529,0.7253112,0.7255488,0.7258447,0.7250692
9.9,0.6181093,0.2023169,-2.2554178,0.0024161814,-0.009900767,-0.107335664,-0.02795313,-0.020627841,0.051761042,-0.00043885176586051534,-0.0033826857211298237,0.058131694537134036,0.00291855,-0.0011608567,-0.00123009,15.906382,-1.0,0.853529,0.7265166,0.72681344,0.7263658,0.7267673
10.0,0.61820996,0.20001024,-2.2659383,-0.0005044616,-0.012391202,-0.10233647,-0.022072224,-0.015456665,0.04150625,-5.528676357993345e-05,-0.0036046734488875205,0.05811185312056842,0.004807617,-0.003755147,-0.00065437483,15.900382,-1.0,0.85019684,0.72606844,0.72564965,0.72592753,0.72558695
10.100000000000001,0.6173096,0.19698212,-2.2757554,-0.0033935565,-0.01466964,-0.097535856,-0.022352627,-0.008834995,0.04114676,0.0004628035420713473,-0.003969526771289463,0.05811956129271613,0.005940994,-0.0038055032,-0.00010666168,15.894382,-1.0,0.84686375,0.7269453,0.72730577,0.7270072,0.7272417
10.200000000000001,0.6161171,0.19428284,-2.2842312,-0.0056993393,-0.016024414,-0.09389038,-0.017971965,0.00069091807,0.034379303,0.001119235516386033,-0.004427211685829082,0.058151697161409575,0.007342031,-0.0050439886,-0.0010171101,15.894382,-1.0,0.84686375,0.7260561,0.7259613,0.72577226,0.72645307
10.3,0.6145519,0.1918428,-2.292963,-0.00740113,-0.016322283,-0.09001448,-0.008197308,0.00111387,0.03422424,0.001759768089008368,-0.00501045858119578,0.05816468078000576,0.004326982,-0.0073549747,-0.00043395252,15.888383,-1.0,0.8435316,0.7273934,0.727453,0.72801536,0.7270363
10.4,0.61262286,0.19034086,-2.3008971,-0.008755978,-0.015283789,-0.086856626,-0.006170816,0.013916077,0.022787133,0.002286226087862225,-0.005544582033477355,0.05815941066925235,0.0042055277,-0.0043786494,-0.0006628274,15.888383,-1.0,0.8435316,0.7257821,0.7262415,0.7256238,0.7264947
10.5,0.6102474,0.18924098,-2.3091908,-0.009651253,-0.013848575,-0.08358559,0.0109027475,0.01090632,0.044598706,0.0025793308173456125,-0.0060711269699587145,0.05811594033377231,0.0013187465,-0.0054552183,-0.00026658885,15.888383,-1.0,0.8435316,0.7273376,0.72753906,0.7272043,0.72755957
10.600000000000001,0.6071345,0.18895206,-2.3180652,-0.010787848,-0.011700453,-0.08024772,0.006898355,0.013446962,0.03789877,0.0026384479386987168,-0.006699462064575486,0.058088816557448915,-0.000557489,-0.0065247566,8.650386e-05,15.882383,-1.0,0.8401995,0.7252919,0.7255208,0.72521526,0.72541267
10.700000000000001,0.6035848,0.18946762,-2.32684,-0.01131032,-0.009015018,-0.07588966,0.017170882,0.019612907,0.047046687,0.00253115338503079,-0.007334934158818958,0.058118171915837534,-0.002346557,-0.0062462394,-0.0005009787,15.876384,-1.0,0.8368664,0.7271388,0.72700983,0.72699773,0.7272446
10.8,0.6003679,0.19052294,-2.3350468,-0.011147526,-0.0063888347,-0.0716557,0.022719692,0.017481247,0.046398487,0.0022150364512021885,-0.007974212663675947,0.05807794077029054,-0.0039921356,-0.006556525,-0.0003856453,15.876384,-1.0,0.8368664,0.72552335,0.725106,0.7249157,0.7255258
10.9,0.5972568,0.19195643,-2.3431926,-0.010040991,-0.004222768,-0.06751359,0.022288255,0.0054933303,0.05224626,0.0017279014302917014,-0.008579042199488275,0.058051303348794984,-0.0058606155,-0.0065692845,-0.0007468758,15.876384,-1.0,0.8368664,0.7270485,0.7264769,0.72680414,0.7264018
11.0,0.59338385,0.19401607,-2.3519096,-0.00902067,-0.0020546122,-0.062666744,0.032994334,0.0020409524,0.04958454,0.0011876314278686268,-0.009064381729112,0.058047524208004075,-0.00682728,-0.0051087514,0.00018610635,15.870384,-1.0,0.83353424,0.72503895,0.72541565,0.72513986,0.72510755
11.100000000000001,0.58990115,0.19630346,-2.3599448,-0.0072454596,-0.00015433214,-0.05759765,0.036857087,0.00056611537,0.057348046,0.0005681737011460134,-0.00953254357343269,0.058039673458594475,-0.0069104927,-0.0054368917,-6.7216155e-05,15.864385,-1.0,0.83020115,0.7265404,0.7266373,0.7266116,0.72636724
11.200000000000001,0.5873471,0.1982199,-2.3666682,-0.0050158394,0.00055810506,-0.053243265,0.03619676,-0.013379513,0.042603347,-6.763686499406563e-05,-0.0099496109675835,0.05805809330313171,-0.005825851,-0.0048812553,0.00011572988,15.864385,-1.0,0.83020115,0.7258884,0.725361,0.72565037,0.7256109
11.3,0.5853422,0.1999007,-2.3732982,-0.0020585838,0.00050826796,-0.048481323,0.04596804,-0.013076079,0.046907455,-0.0006319707828221611,-0.010240019702589745,0.058070272845562584,-0.0051060244,-0.0036109725,0.000308496,15.858385,-1.0,0.826869,0.7272564,0.7266216,0.72716767,0.7267521
11.4,0.58470863,0.20070708,-2.3786225,0.0012830703,-0.0004733442,-0.045097936,0.045830056,-0.015838278,0.03812322,-0.0010801220931787466,-0.010392562578978973,0.058076400352347055,-0.0034602399,0.0003417846,-5.1757568e-05,15.858385,-1.0,0.826869,0.7261423,0.72662723,0.72631776,0.726462
11.5,0.58537227,0.20051026,-2.3834028,0.0055483524,-0.0025114089,-0.04222596,0.045066435,-0.026075974,0.033002343,-0.00131858144038729,-0.010309913418365383,0.05809499688965569,-0.0010081228,0.0016135494,-0.00023922372,15.858385,-1.0,0.826869,0.72739047,0.7271851,0.7276713,0.7270289
11.600000000000001,0.5878725,0.19895639,-2.3879418,0.010665666,-0.0054529696,-0.039194837,0.03579124,-0.020380223,0.025496816,-0.0012862885001398738,-0.009949127915713625,0.05810391193771114,0.0016657481,0.005923924,9.41559e-05,15.8523855,-1.0,0.8235359,0.7268654,0.72737324,0.72718143,0.727139
11.700000000000001,0.5915208,0.19639882,-2.391838,0.01591615,-0.0086632455,-0.0368639,0.027955668,-0.018357519,0.017255543,-0.0009500303932933475,-0.009286301217853775,0.05806556517575604,0.0048793303,0.009146572,-0.00022576058,15.846386,-1.0,0.8202038,0.7276694,0.7281962,0.72791326,0.7277461
11.8,0.59536713,0.19345126,-2.3947139,0.019935321,-0.011701029,-0.035118543,0.020681165,-0.01629609,0.012446194,-0.00030927955194445865,-0.008313542878913983,0.05807756058631308,0.0072698006,0.011332201,-0.00031170424,15.846386,-1.0,0.8202038,0.72771555,0.72828835,0.72807306,0.72789437
11.9,0.59984684,0.19017614,-2.397335,0.023590326,-0.013818114,-0.034315776,0.011783819,-0.010631729,-0.00039348376,0.0005487414311877993,-0.007217914521311713,0.05810252545841491,0.009286859,0.011573565,0.00037715404,15.846386,-1.0,0.8202038,0.7285203,0.7280953,0.7285456,0.72822636
12.0,0.60509163,0.18635853,-2.4003286,0.026140606,-0.015588349,-0.033807214,0.0033692247,-0.0005662691,0.005258247,0.0014782774871701875,-0.0060769383125706565,0.058081351905430574,0.010101421,0.011667223,-0.00023241695,15.840386,-1.0,0.8168707,0.72853446,0.72798645,0.72827137,0.728179
12.100000000000001,0.6102443,0.18229912,-2.4035988,0.027030425,-0.01644007,-0.033948105,-0.015258433,0.011260486,-0.047319565,0.0023435766463515972,-0.005832744617624578,0.05809452873040903,0.0068978677,-0.0510033,-0.0003839492,15.834387,-1.0,0.81353855,0.6909097,0.7533483,0.6971245,0.7651186
12.200000000000001,0.61480963,0.17806017,-2.4074507,0.040694606,-0.016683225,-0.035501048,0.34743243,0.028718939,0.016305594,0.0014157295859897185,-0.04837719605579021,0.057134737321250975,-0.013001014,-0.5907858,-0.019750867,15.834387,-1.0,0.81353855,0.70829463,0.6986675,0.7493752,0.7442008
12.3,0.6237807,0.17329237,-2.411603,0.11004245,-0.015427264,-0.028206477,0.8851211,0.03331189,0.11173216,-4.591608256085903e-05,-0.10088694779011351,0.05320338846280653,-0.018759586,-0.4281441,-0.05470022,15.828387,-1.0,0.8102064,0.70864224,0.6928221,0.7558669,0.74020576
12.4,0.6417197,0.16965248,-2.4143481,0.21351865,-0.013417137,-0.016068999,1.1629659,0.036301658,0.13789487,-0.0007865110060690178,-0.12953512778949675,0.045740861866777116,-0.012321974,-0.17624046,-0.08866836,15.828387,-1.0,0.8102064,0.71336305,0.70192957,0.74872196,0.7369859
12.5,0.6723025,0.16643699,-2.4160466,0.33424565,-0.011398313,-0.004441153,1.2438229,0.035325624,0.11632079,-0.00029979828325800217,-0.13678323483114085,0.03555166777015761,-0.0064343065,0.0020368034,-0.10959233,15.828387,-1.0,0.8102064,0.719986,0.7152893,0.7382128,0.7325864
12.600000000000001,0.7206094,0.16339126,-2.4167671,0.4663293,-0.0090825,0.005447447,1.1830248,0.027568165,0.07881177,0.0007739940960239774,-0.1306233497193497,0.024111109198628765,-0.0037888058,0.10352288,-0.11414142,15.822388,-1.0,0.8068733,0.7280298,0.72679025,0.7290085,0.727469
12.700000000000001,0.78408426,0.1604591,-2.416082,0.5889431,-0.00790541,0.011700368,1.0406244,0.020245172,0.050607134,0.00183481252440061,-0.11774037583869221,0.012862976668964821,-0.0030499434,0.1484153,-0.106223874,15.816388,-1.0,0.8035412,0.73423177,0.736067,0.72156507,0.7225997
12.8,0.8538484,0.15757836,-2.4149122,0.68821985,-0.0074135824,0.014609114,0.8889578,0.010546881,0.030786263,0.0026426314725251847,-0.10229150259332184,0.0029379706369309744,-0.002081402,0.15980531,-0.09031064,15.816388,-1.0,0.8035412,0.7390293,0.7416142,0.7167774,0.7186963
12.9,0.931944,0.15383466,-2.4136348,0.77205515,-0.008121771,0.015581536,0.73333067,0.01584781,-0.0011334195,0.0031204173262489687,-0.08678290031612154,-0.004901147507614248,-0.0008682514,0.15278964,-0.066319324,15.816388,-1.0,0.8035412,0.74073136,0.74483407,0.7133295,0.7174075
13.0,1.0228148,0.1485652,-2.4117723,0.84480584,-0.00998812,0.015797898,0.5660229,0.013285644,-0.008739064,0.0033917597929386035,-0.07255782344509451,-0.010399318385605887,0.0011777155,0.13367121,-0.041999348,15.810389,-1.0,0.8002081,0.7413755,0.7450449,0.71325386,0.71663654
13.100000000000001,1.1180222,0.14258334,-2.4091024,0.9005472,-0.012042827,0.015563124,0.43537647,0.017456753,-0.011644791,0.00356911153191734,-0.06037863155930297,-0.013559703020717186,0.0015682426,0.112409234,-0.018830167,15.804389,-1.0,0.79687595,0.7393402,0.74476194,0.7139453,0.71823615
13.200000000000001,1.208979,0.136761,-2.4063945,0.93949175,-0.014022004,0.015091663,0.33835423,0.017913397,-0.015249475,0.0037785754499229155,-0.05046381717353656,-0.014617262096068664,0.0029808385,0.0887837,0.00043789155,15.804389,-1.0,0.79687595,0.73730487,0.7423344,0.7164212,0.7200789
13.3,1.3095448,0.12995511,-2.4034667,0.97073185,-0.016092489,0.01426151,0.25616586,0.018726273,-0.013113487,0.003970329568830067,-0.042643011793611775,-0.013909840174975449,0.004212507,0.069038086,0.017052554,15.798389,-1.0,0.79354286,0.7343662,0.73928356,0.7188357,0.7233006
13.4,1.4037614,0.12306106,-2.4010787,0.99203676,-0.017839452,0.01340669,0.20046537,0.024775395,-0.0088806255,0.004207689987417289,-0.03668231026389368,-0.011941910078028454,0.0049612494,0.05237929,0.02733538,15.798389,-1.0,0.79354286,0.73110753,0.7362147,0.72197914,0.7260493
13.5,1.4982911,0.11579018,-2.3991027,1.0074191,-0.019517692,0.012530423,0.14766005,0.027516572,-0.0090524545,0.004442894442731684,-0.03215240631192101,-0.00921617097695069,0.0046200566,0.03824666,0.03352007,15.798389,-1.0,0.79354286,0.7284151,0.73307985,0.7251299,0.7283129
13.600000000000001,1.6005131,0.1078688,-2.3969646,1.0181416,-0.020470705,0.011777619,0.11078132,0.025084881,-0.012172851,0.004722051680319968,-0.028954430677632703,-0.006324792154646348,0.005463788,0.027566263,0.032947186,15.79239,-1.0,0.7902107,0.72640777,0.730515,0.7269981,0.73085713
13.700000000000001,1.7018201,0.099464335,-2.3947902,1.024537,-0.02147907,0.011202608,0.08701574,0.035649672,-0.01599267,0.004962105199473294,-0.026507416253056665,-0.003274185698227712,0.003913936,0.018192919,0.031017656,15.78639,-1.0,0.7868786,0.7241024,0.72912085,0.72933435,0.7322464
13.8,1.7950122,0.09149241,-2.3927784,1.0278456,-0.022289792,0.010684042,0.07315541,0.03771613,0.0019036232,0.005173113872528639,-0.024948401765729596,-0.0007146239761023965,0.004066057,0.01004113,0.024934666,15.78639,-1.0,0.7868786,0.7232583,0.7276265,0.7305802,0.7332655
13.9,1.8879011,0.083652616,-2.3910627,1.0297031,-0.022788808,0.010234951,0.06549175,0.04077979,-0.002338085,0.005419712380054907,-0.023952588511327158,0.0012904297675623768,0.0032808813,0.0070707006,0.018877337,15.78639,-1.0,0.7868786,0.72235644,0.72747743,0.7309877,0.7339609
14.0,1.9879941,0.07511044,-2.3897777,1.0303234,-0.02302567,0.009498265,0.0580515,0.04068495,-0.0009713694,0.005609741776934138,-0.023368727447922424,0.002687804661737811,0.0026458981,0.0033292053,0.013061215,15.780391,-1.0,0.7835455,0.722348,0.72723174,0.73106086,0.7338859
14.100000000000001,2.0883546,0.06673299,-2.3893895,1.0306395,-0.023212254,0.008651316,0.04623635,0.03897941,-0.011269468,0.005803055821155036,-0.023062192525054093,0.003414512335906108,0.0028631948,-0.00033254374,0.0056836065,15.774391,-1.0,0.78021336,0.72300136,0.72725785,0.73087645,0.73304534
14.200000000000001,2.1820118,0.05956577,-2.3893604,1.031347,-0.022365427,0.007929292,0.040641364,0.04264958,-0.0028107313,0.005958745462677604,-0.02288851005820426,0.0035935994980482136,0.0018612377,0.0006998599,0.0005014873,15.774391,-1.0,0.78021336,0.7233431,0.72802526,0.729728,0.73256946
14.3,2.2845213,0.05278063,-2.3894305,1.0325377,-0.020645741,0.007367619,0.04569884,0.042363286,-0.009738839,0.006042328482179164,-0.022732661127308425,0.003351745425893403,0.00030531833,0.0015567839,-0.0034455198,15.768392,-1.0,0.77688026,0.7239202,0.7289951,0.72878784,0.73181885
14.4,2.3798692,0.047466975,-2.389411,1.0335286,-0.018498942,0.007056659,0.04448042,0.040972125,0.00048056242,0.0059807533521207875,-0.022503439671919694,0.002832251484567676,-0.0015769105,0.0017853437,-0.0056691966,15.768392,-1.0,0.77688026,0.7247426,0.7297084,0.7282283,0.730776
14.5,2.475872,0.042864136,-2.388702,1.034792,-0.016148627,0.0070865937,0.03696708,0.046919707,-0.0013969837,0.005787826729883648,-0.022222167286602437,0.002134248148130407,-0.0016083623,0.0026647954,-0.0073730345,15.768392,-1.0,0.77688026,0.7258316,0.7302735,0.72724134,0.7305096
14.600000000000001,2.5806503,0.03844556,-2.3869395,1.0365577,-0.014128734,0.007138606,0.03647863,0.03486423,0.0041727903,0.005517364345642295,-0.02191956331740454,0.0014126104371986878,-0.0031602497,0.0026975728,-0.0074489363,15.762392,-1.0,0.7735472,0.7263218,0.7311019,0.727221,0.72966766
14.700000000000001,2.6861978,0.034038275,-2.385232,1.038407,-0.012546897,0.007187975,0.03286934,0.029095178,-0.0012093222,0.005247123463018151,-0.021585036715463277,0.0006744104586033958,-0.0025307522,0.002701282,-0.0068408703,15.7563925,-1.0,0.7702141,0.72693735,0.73164004,0.7268181,0.7293124
14.8,2.7843409,0.029726325,-2.3832254,1.0401193,-0.011971283,0.007058588,0.029150024,0.024483554,-0.0044680196,0.00501751538102528,-0.021159158816431295,8.620034185184674e-05,-0.0010212534,0.0050307703,-0.0050061787,15.7563925,-1.0,0.7702141,0.72688484,0.73225236,0.7262569,0.7296154
14.9,2.8830552,0.025590153,-2.3812723,1.0414364,-0.011513893,0.006728659,0.024440551,0.01827982,-0.008542555,0.0049009248557954094,-0.02074427350997794,-0.0004230539275189238,-0.00041804393,0.004445846,-0.004776768,15.7563925,-1.0,0.7702141,0.72722214,0.7322965,0.7263351,0.7291371
15.0,2.9907148,0.021409305,-2.37889,1.0428904,-0.010980003,0.0064743385,0.024488246,0.021311868,-0.0119670285,0.004848896096834788,-0.02037369497219642,-0.0007285548070234343,-0.000398234,0.0034606364,-0.0016407053,15.750393,-1.0,0.766881,0.72722477,0.73226255,0.726751,0.72883314
15.100000000000001,3.0985868,0.017600654,-2.3767223,1.0440149,-0.010467808,0.006197547,0.011816933,0.024367457,-0.013277865,0.004804334027524866,-0.01997523087469996,-0.0008699422276009248,0.0005741489,0.0031676928,-0.00061738375,15.744393,-1.0,0.7635479,0.72746295,0.73182386,0.726838,0.72903585
15.200000000000001,3.1977222,0.014751247,-2.3745866,1.0442976,-0.009615027,0.005908843,0.017685138,0.016076107,-0.012244563,0.004781563872581779,-0.019599787197110294,-0.0008324463896340891,-0.0004739447,0.0023998672,0.000857331,15.744393,-1.0,0.7635479,0.72709984,0.73174137,0.7269484,0.72932506
15.3,3.3047001,0.012883289,-2.3719726,1.0439938,-0.008000523,0.005734679,0.022461928,0.027946046,-0.003423076,0.0047315772102716975,-0.019310172304044127,-0.000686528541919844,-0.00070762,0.0014448699,0.0010666768,15.738394,-1.0,0.7602148,0.72686,0.7315509,0.72718734,0.72960275
15.4,3.4029918,0.011884622,-2.3695488,1.0429511,-0.0062676165,0.0054737646,0.0055013075,0.014577486,-0.010746065,0.00459728266847569,-0.019141488031342118,-0.0005018395411676528,-0.0019299182,0.001058703,0.002258771,15.738394,-1.0,0.7602148,0.7265302,0.73155177,0.7270485,0.73014414
15.5,3.5005498,0.01152527,-2.3671227,1.0418264,-0.004284316,0.005211379,0.0066531426,0.020509765,-0.0015846452,0.004380748555520464,-0.019065315355022323,-0.0002812893726782879,-0.002515884,-0.00023879547,0.0015129171,15.738394,-1.0,0.7602148,0.7264051,0.7312934,0.72742885,0.7301356
15.600000000000001,3.6053498,0.01144323,-2.3643665,1.0399599,-0.0024411525,0.0045617376,0.008149138,0.016232042,-0.0086496575,0.004083923080630112,-0.019065805288408257,-4.3910397522264826e-05,-0.0025653017,-0.00065025245,0.0016285642,15.732394,-1.0,0.7568817,0.7261405,0.7309891,0.7273111,0.73036665
15.700000000000001,3.7099373,0.011514179,-2.3623443,1.0384827,-0.001039713,0.0039293105,0.0045332196,0.011520101,-0.002485234,0.003793178061627474,-0.01916562372583104,0.00011473258433741132,-0.0019194286,-0.0023648695,0.0011604761,15.726395,-1.0,0.7535486,0.72638816,0.730472,0.72760683,0.7298508
15.8,3.8065557,0.011368848,-2.3613129,1.0373394,-0.00045343826,0.003335501,0.0020968143,0.005505779,0.00037532297,0.0035105692777890984,-0.019289279596943,0.0002554101865693103,-0.002181044,-0.0013467493,0.00086351804,15.726395,-1.0,0.7535486,0.7257913,0.73070675,0.72736746,0.729955
15.9,3.9034338,0.01094687,-2.3607063,1.036806,-0.00047371618,0.0027423035,0.0060568703,0.008204819,-0.004103407,0.003354972022998375,-0.019391849178447194,0.00037146321033588135,-0.00076473475,-0.00060102774,0.0010693626,15.726395,-1.0,0.7535486,0.7255996,0.7305457,0.72740865,0.7297287
16.0,4.0078855,0.01010599,-2.3599386,1.0359735,-0.0010823759,0.0026290962,0.007374583,0.00699561,0.00048521903,0.0032616423036948236,-0.01938551772731369,0.00045940499623309744,0.00037199372,0.00068613247,6.132348e-05,15.720395,-1.0,0.75021553,0.7252494,0.7309053,0.72722954,0.7299146
16.1,4.11225,0.009688425,-2.358469,1.0352408,-0.0015864454,0.0026725093,0.008303308,0.005225758,0.00018160789,0.0033231356723649806,-0.019392537836461696,0.0004936262082707636,0.00091949024,0.0005725772,-0.0007723094,15.7143955,-1.0,0.74688244,0.72541577,0.73089534,0.72705644,0.7301287
16.2,4.209008,0.009715596,-2.3570747,1.0348423,-0.0014627051,0.0026195333,0.01110461,0.0017944111,0.0026342457,0.003400324440297593,-0.019379888946971645,0.0004991066921328885,-0.0006569822,-0.0009223646,-0.00028097944,15.7143955,-1.0,0.74688244,0.7256781,0.7307347,0.72783124,0.72936237
16.3,4.314507,0.01017844,-2.3557673,1.0349538,-0.0009649738,0.002621491,0.00884888,0.0026330715,-0.0029769724,0.0034496707711319874,-0.019358075916710342,0.0004036670022008876,0.0008950964,0.00053332816,-0.0011010492,15.708396,-1.0,0.74354935,0.72608346,0.73069435,0.7269575,0.73001987
16.400000000000002,4.413005,0.011008442,-2.3543005,1.0356416,-0.0002173123,0.0026052692,0.008577626,0.0055097677,-0.0024051403,0.003430294324290191,-0.019260199630748463,0.0003208589649426821,-0.0011343854,0.0017495097,-0.00084014406,15.708396,-1.0,0.74354935,0.7260032,0.73095137,0.7272179,0.72969544
16.5,4.512216,0.012455213,-2.353003,1.0365514,0.0010427919,0.0024944085,0.007099792,-0.0025684384,-0.0052996906,0.0033720528918935386,-0.01909741028782238,0.00022770136626805012,-0.0008980804,0.0013014439,-0.0009862253,15.708396,-1.0,0.74354935,0.7263807,0.73066556,0.72732764,0.7294871
16.6,4.6205893,0.015155585,-2.3516774,1.0378845,0.0030714367,0.0024136847,0.0047516804,0.0012766058,-0.012097414,0.003226603454179571,-0.018849996945409165,0.00011093232608637103,-0.0007234765,0.0029964943,-0.0006139278,15.702396,-1.0,0.74021626,0.7265547,0.73059756,0.72675765,0.72998095
16.7,4.721149,0.01848579,-2.3509688,1.0389646,0.00527327,0.0023115359,0.0045322883,-0.0046612583,0.0023576429,0.0029785490319002316,-0.01854070137216426,-3.371134005410145e-05,-0.0033709619,0.0035296339,-0.00083906285,15.702396,-1.0,0.74021626,0.7261905,0.7311236,0.7270436,0.7295226
16.8,4.8306513,0.022946615,-2.3502831,1.0403302,0.007683547,0.0022540945,0.0024360414,0.00070770597,-0.010394025,0.0026466356955422593,-0.01821475329775708,-0.0001421637824348392,-0.0046067294,0.0033969786,-0.0011100591,15.696397,-1.0,0.73688316,0.72622347,0.7311065,0.72727793,0.72932106
16.900000000000002,4.9405885,0.027826093,-2.3495011,1.0413463,0.010107499,0.0019440341,-0.0069826995,-0.005235558,0.0017420388,0.002252914628561311,-0.017867743386492083,-0.000213079379425739,-0.0065478575,0.004067351,-0.00038849367,15.690397,-1.0,0.7335501,0.7257413,0.7314177,0.7273575,0.72912705
17.0,5.0420303,0.032338507,-2.3489203,1.0421398,0.011715511,0.0017301558,-0.015112992,-0.012676695,-0.0073537226,0.0018195100653396348,-0.017522615277806013,-0.00025095283738616657,-0.0042410744,0.004532428,7.9875106e-05,15.690397,-1.0,0.7335501,0.72603655,0.73102283,0.7267999,0.7296596
17.1,5.151498,0.03725205,-2.349101,1.0404931,0.012742141,-0.014879155,-0.1194836,-0.017534193,-0.2163155,0.0014601687356246512,-0.0014519843451002085,-0.00026117486966606397,-0.0037291949,0.46190372,0.00020609164,15.684398,-1.0,0.730217,0.7372406,0.73134,0.7380927,0.7299643
17.2,5.250524,0.04158716,-2.350874,1.0002697,0.013426508,-0.026490288,-0.68618584,-0.011275105,-0.017921438,0.0011679631184138136,0.05701359985234925,-0.00020998476855495817,-0.0052829147,0.56401926,1.2679666e-06,15.684398,-1.0,0.730217,0.7167659,0.74006855,0.71919775,0.73719156
17.3,5.349714,0.04595478,-2.3532405,0.90205336,0.013165202,-0.02158754,-1.1303829,-0.023471091,0.09589595,0.0009837997661564046,0.09954296568254883,-0.00012351200758772403,-0.0022616938,0.30270377,0.0012591402,15.678398,-1.0,0.7268839,0.7175536,0.73628604,0.71868616,0.73493415
17.400000000000002,5.4284334,0.04953307,-2.3549075,0.7829623,0.01262504,-0.011714673,-1.2790962,-0.021382656,0.11241901,0.0009479871217179181,0.11672980855341966,2.7783174561410575e-05,0.0005740576,0.07626061,0.0011513319,15.678398,-1.0,0.7268839,0.7208939,0.73409146,0.72176313,0.7334285
17.5,5.4932923,0.052814852,-2.3561692,0.6561086,0.011714648,-0.0027342811,-1.2848749,-0.023702139,0.082692124,0.0009747536507290639,0.11619418617730042,0.00024612150206495474,-0.000111926645,-0.06245811,0.001092055,15.678398,-1.0,0.7268839,0.72430044,0.7327059,0.72575647,0.7315863
17.6,5.548009,0.05627081,-2.357041,0.5236246,0.010510964,0.004013308,-1.1752099,-0.025377233,0.0516423,0.0011133636232000294,0.10570195818235784,0.0005138813438002758,0.0021862632,-0.13343108,0.00048286933,15.672399,-1.0,0.7235508,0.7269261,0.7316277,0.72779614,0.7315101
17.7,5.585565,0.05950224,-2.3578463,0.4130414,0.009587323,0.0072209686,-1.0291314,-0.02021515,0.023042316,0.0013051638907035003,0.09070144890512494,0.0007807474246039638,0.002709831,-0.16097125,-5.5924305e-05,15.672399,-1.0,0.7235508,0.7283986,0.7306058,0.72958356,0.7307071
17.8,5.614978,0.06376174,-2.358439,0.31052244,0.009252034,0.008222124,-0.8547999,-0.013923377,0.005136709,0.0015015606792438655,0.07454662343904998,0.0009148725913483057,0.0015419225,-0.16079016,-0.0010179057,15.666399,-1.0,0.7202177,0.72851306,0.73027426,0.7302183,0.7302208
17.900000000000002,5.6354613,0.06906646,-2.358756,0.2267422,0.010136696,0.0077990578,-0.6794447,-0.016223207,-0.003754161,0.0016032906621856313,0.05919604565951713,0.0007570342761185933,-3.277765e-05,-0.14711416,-0.00119376,15.660399,-1.0,0.7168846,0.7292128,0.729436,0.7303824,0.72930855
18.0,5.648522,0.074710175,-2.3592653,0.16533864,0.011496149,0.0069918674,-0.54795074,-0.022309715,-0.006907619,0.0015698225645618255,0.04568495694741198,0.00042016077118933,-0.0018280181,-0.12627885,-0.0015068313,15.660399,-1.0,0.7168846,0.72939545,0.72907645,0.7300742,0.7286969
18.1,5.6580863,0.08181184,-2.360289,0.113206275,0.013693764,0.005583946,-0.41976514,-0.01427177,-0.010514631,0.0013787012724079475,0.03436769595507567,-5.4815418340248506e-05,-0.0027353214,-0.10296802,-0.0015242508,15.6544,-1.0,0.7135515,0.729525,0.7286635,0.7290977,0.72855365
18.2,5.6640854,0.08919049,-2.3617048,0.076861426,0.015897982,0.0045341905,-0.32642883,-0.021861304,-0.0048573124,0.0010780640707636,0.02517522005776364,-0.0006158568103270707,-0.002933108,-0.08158362,-0.0005690057,15.6544,-1.0,0.7135515,0.72954285,0.7285168,0.7283086,0.7282335
18.3,5.668891,0.09779331,-2.3629475,0.04746851,0.01853688,0.004112123,-0.24722102,-0.02690267,0.009969342,0.0006723376259704279,0.01795563833596679,-0.0011446284386232239,-0.005360736,-0.06355107,-0.00021061102,15.6484,-1.0,0.7102184,0.72944427,0.7287663,0.7286693,0.72735333
18.400000000000002,5.6727014,0.10637518,-2.3637767,0.027859116,0.020746369,0.0034160065,-0.19124265,-0.032180388,-0.006956048,0.0002006405096675728,0.012452704807619498,-0.0016118106463338601,-0.0057847714,-0.047218315,-3.346192e-05,15.6484,-1.0,0.7102184,0.72918767,0.729037,0.7282406,0.72719693
18.5,5.675816,0.11544087,-2.3642688,0.013221664,0.022808483,0.003263282,-0.14795685,-0.03035631,0.0090776,-0.0003042807691066967,0.008341359652540554,-0.0019943497630720594,-0.006372384,-0.03476404,0.001374779,15.6484,-1.0,0.7102184,0.72925013,0.72924286,0.7281719,0.7269923
18.6,5.6780744,0.1256176,-2.364963,0.001187717,0.024751408,0.0032039315,-0.11547297,-0.0325634,0.0073430124,-0.0007880321694706781,0.0053276501050695995,-0.0022097836480813684,-0.005597532,-0.025593566,0.00260142,15.642401,-1.0,0.70688534,0.72919655,0.72931373,0.727979,0.72728974
18.7,5.679472,0.13609143,-2.3653502,-0.0072155218,0.026656454,0.0029676405,-0.093085654,-0.038470045,-0.005691312,-0.0012004255945044454,0.0030494742165637794,-0.0023466786901619923,-0.0050319196,-0.019762505,0.0043818965,15.642401,-1.0,0.70688534,0.7293108,0.72902983,0.72796416,0.7273767
18.8,5.6806617,0.14842905,-2.365696,-0.013904159,0.029203054,0.0028844934,-0.06960258,-0.04063555,0.0039171423,-0.0016398713277757885,0.0013188490714503007,-0.00236865576367307,-0.007701584,-0.015818961,0.005237478,15.636401,-1.0,0.70355225,0.7288532,0.729236,0.7287367,0.7269462
18.900000000000002,5.6819816,0.1612517,-2.3659267,-0.018397717,0.03101525,0.0027524228,-0.06226887,-0.049407307,-0.0017615965,-0.002134644872108955,2.2091646072117737e-05,-0.0022691381884124783,-0.006508464,-0.011173698,0.005938923,15.630402,-1.0,0.70021915,0.7288921,0.7288395,0.7286412,0.7274329
19.0,5.6831594,0.1728373,-2.3663483,-0.020982048,0.031973504,0.0024225565,-0.047490176,-0.053240933,-0.00078789884,-0.0026065457701756147,-0.0009439347409370623,-0.002074995257048267,-0.006091106,-0.0067213587,0.0058410913,15.630402,-1.0,0.70021915,0.7282632,0.7290427,0.7283979,0.7278504
19.1,5.6839867,0.18453485,-2.3671446,-0.023203302,0.03175383,0.0021057052,-0.04722376,-0.054049775,0.010105315,-0.0029966477668408116,-0.0015973183580932312,-0.001754373503490897,-0.0037094997,-0.004735011,0.006665504,15.624402,-1.0,0.69688606,0.7281704,0.72855794,0.7283769,0.7281328
19.200000000000003,5.6840835,0.19460028,-2.3678222,-0.025044471,0.030685533,0.0020565023,-0.04119586,-0.06459857,0.0038589349,-0.0032162055118209803,-0.0020777811272582975,-0.0013787847725070144,-0.0021934411,-0.0035778305,0.006647635,15.624402,-1.0,0.69688606,0.72798645,0.7284527,0.7286012,0.72833335
19.3,5.683883,0.20467718,-2.3691077,-0.026606832,0.028986504,0.001682846,-0.02983772,-0.05825943,0.007237773,-0.003289119930881898,-0.002488541769155907,-0.0009877496870917123,-0.0007140343,-0.003505647,0.004846407,15.6184025,-1.0,0.693553,0.7278415,0.72813165,0.7288619,0.7281841
19.400000000000002,5.6837044,0.2134787,-2.370636,-0.027591528,0.02734472,0.0013924856,-0.030682886,-0.0555261,0.005337409,-0.0032218339916248746,-0.0028386312963926954,-0.0006231570213489977,-9.097038e-05,-0.0024767043,0.004956549,15.6184025,-1.0,0.693553,0.72753716,0.72805226,0.7289431,0.7282556
19.5,5.6839848,0.2220531,-2.372128,-0.0274353,0.025999522,0.0011912412,-0.020004742,-0.057072658,0.001318287,-0.0030856370623351436,-0.003143372109128191,-0.00035525567003286704,-0.00041192543,-0.0021020574,0.0039564115,15.6184025,-1.0,0.693553,0.72763157,0.72778153,0.7292523,0.72795254
19.6,5.6849337,0.23092905,-2.373632,-0.0268689,0.024394054,0.0012282253,-0.025443317,-0.05981848,0.0051008533,-0.0029469111047087395,-0.0033367036526805293,-0.00017401238617671712,0.0009577813,7.79919e-07,0.0022449703,15.612403,-1.0,0.6902199,0.72765625,0.7278938,0.72849953,0.7286823
19.700000000000003,5.685676,0.23865865,-2.3743806,-0.026533527,0.022363175,0.0016065633,-0.027218806,-0.04604408,0.0015026889,-0.002817600917615022,-0.0033822685864409335,-3.0338936806696585e-05,0.0006102247,0.0005813845,0.0018838587,15.606403,-1.0,0.6868868,0.7278151,0.72801,0.72885203,0.72855663
19.8,5.685694,0.24495782,-2.3741498,-0.026413888,0.020311117,0.0019059245,-0.018609036,-0.0491859,-0.0008847564,-0.002618810187900064,-0.0034008323941693065,0.00010899319313869897,0.0019300837,0.0006892528,0.0017760949,15.606403,-1.0,0.6868868,0.7278915,0.7281465,0.7288447,0.72883624
19.900000000000002,5.6850204,0.25119302,-2.3736334,-0.026365269,0.018160427,0.002180458,-0.013371116,-0.04659578,0.003925524,-0.002370698957167416,-0.0034417189817257947,0.0001522495143912885,0.0024746167,0.0002743787,0.00053445814,15.600404,-1.0,0.6835537,0.72820705,0.72824293,0.7289293,0.72871137
20.0,5.683907,0.2562545,-2.3730898,-0.026345413,0.016224945,0.002054261,-0.014382104,-0.036757015,-0.0017639248,-0.002120340187365276,-0.003505775684465778,0.00015888728444770364,0.002119607,-0.00073560025,0.00019302676,15.600404,-1.0,0.6835537,0.7283544,0.72830766,0.72914046,0.72833437
20.1,5.682508,0.2614629,-2.3725214,-0.026341233,0.014438752,0.0018608514,-0.021021016,-0.041704614,0.00031432134,-0.0018875878264300037,-0.0035637750775344935,0.0001817580630217649,0.0013805586,-0.0011929668,0.0009822554,15.594404,-1.0,0.6802206,0.72849387,0.72811836,0.72917247,0.72822535
20.200000000000003,5.681056,0.26611206,-2.3723607,-0.026534948,0.013128166,0.0015751288,-0.02489389,-0.040456295,-0.0045588235,-0.0016274687808673952,-0.0036487298658352445,0.00014001058725273457,0.002357804,-0.0015451856,-0.0006391635,15.594404,-1.0,0.6802206,0.72874725,0.72794175,0.7288202,0.72828364
20.3,5.6796355,0.271004,-2.3728437,-0.026381427,0.011828203,0.0011227693,-0.014031784,-0.033294927,-0.009653158,-0.0014199166801159453,-0.003753482496104982,0.00010970917496988984,0.0019607756,0.0002618258,0.0010257047,15.588405,-1.0,0.6768875,0.7281501,0.7284075,0.7282664,0.7286381
20.400000000000002,5.677943,0.2749587,-2.3736682,-0.02649735,0.010552364,0.00072972866,-0.020981647,-0.03284485,0.0060079615,-0.0012378527086506447,-0.003828566785359891,4.165094440671203e-05,0.0009727083,0.00045397258,-2.7821356e-05,15.588405,-1.0,0.6768875,0.7279909,0.7284829,0.728501,0.7279585
20.5,5.6752367,0.27850392,-2.3739724,-0.027360544,0.009222698,0.00084787817,-0.014033231,-0.027439892,0.008203088,-0.0010606092942593414,-0.0039085557374827695,1.3129944602647482e-06,0.0023839837,-0.0010809846,0.00025351084,15.588405,-1.0,0.6768875,0.72863734,0.7279675,0.72818464,0.7283289
20.6,5.670604,0.28228396,-2.3734303,-0.029680802,0.008137341,0.00104079,-0.01048363,-0.024067245,0.0043413597,-0.0008783173336524736,-0.004071876636386434,-2.5851352043488437e-05,0.0011617177,-0.0027465739,-0.0005156909,15.582405,-1.0,0.6735544,0.7282831,0.72843677,0.72842366,0.7282714
20.700000000000003,5.664496,0.2863757,-2.372623,-0.03275139,0.0079531595,0.0011124889,-0.014473718,-0.025398763,-0.0089542,-0.0007193510008315525,-0.0043808238904124676,-0.0001073535481010305,0.0009977899,-0.0046728053,-0.00095949275,15.576406,-1.0,0.6702213,0.7287126,0.72830504,0.72824395,0.72837985
20.8,5.6579466,0.29020518,-2.3718414,-0.035592273,0.0075405356,0.0013761782,-0.0057971445,-0.022832487,0.0071818936,-0.0006407039966789541,-0.004893878567846265,-0.00017035190829081047,0.0004838502,-0.0065975846,-0.00049088465,15.576406,-1.0,0.6702213,0.72890145,0.72836643,0.72824776,0.7284677
20.900000000000002,5.6501894,0.293881,-2.371056,-0.038084373,0.006930987,0.0013082373,0.007032291,-0.027041884,-0.0021834855,-0.000614505389592878,-0.005476856736941404,-0.00021600520309453873,-0.00049985724,-0.0065780217,-0.0010255689,15.570406,-1.0,0.66688824,0.72849625,0.7288427,0.72849965,0.7281524
21.0,5.6434054,0.296659,-2.3704405,-0.039342526,0.0059898244,0.0013873355,0.006697908,-0.02007267,0.00070221716,-0.0005765559936550661,-0.006062491614056393,-0.00021573032947929473,0.0005109909,-0.005614874,0.00086845533,15.570406,-1.0,0.66688824,0.728816,0.72849005,0.7281625,0.7286998
21.1,5.636788,0.29908413,-2.3702745,-0.039563492,0.0049665957,0.0009368879,0.013794812,-0.026460346,-0.006928574,-0.0004672906221325636,-0.006528257284779999,-0.0001904528176426534,0.0019659381,-0.004156318,-0.00022595402,15.564406,-1.0,0.66355515,0.72884315,0.7281882,0.72814155,0.72860277
21.200000000000003,5.63158,0.30105415,-2.3705716,-0.038530707,0.004001885,0.00080083765,0.01581294,-0.018751495,0.0067381184,-0.0003650039122524016,-0.006845658243736912,-0.00012875400774126875,0.0009684726,-0.0031019228,0.0010783569,15.564406,-1.0,0.66355515,0.7287659,0.72805387,0.72885513,0.7279122
21.3,5.626783,0.30315524,-2.371758,-0.036907107,0.0032680407,7.528456e-05,0.013835829,-0.014143084,-0.0077071595,-0.00022574846571586592,-0.006962440316833791,-4.845056676783239e-05,0.0005233354,0.00025109004,0.0006576888,15.558407,-1.0,0.66022205,0.7282064,0.7281319,0.728508,0.72803843
21.400000000000002,5.6231456,0.30477074,-2.373425,-0.0349848,0.0025687432,-0.00014367561,0.018639121,-0.022377202,0.0055707055,-0.00011917423161498339,-0.006964339941118097,-1.17681888154026e-05,0.0006324185,0.0011128844,-0.00033396573,15.558407,-1.0,0.66022205,0.7283287,0.72786367,0.7283991,0.7278915
21.5,5.619909,0.30578193,-2.374879,-0.032947417,0.0012987384,-0.00012400527,0.009215105,-0.009831022,0.007865484,-5.358301912920017e-06,-0.006843971988233305,2.716879748122368e-05,0.00033038165,0.0018605136,0.0003985545,15.558407,-1.0,0.66022205,0.7279423,0.7281957,0.72855896,0.7277941
21.6,5.6165824,0.30610448,-2.3756685,-0.031057239,-0.00022746864,4.2639418e-05,0.0076622507,-0.014972556,0.005798414,0.00013782167051919517,-0.006625598087004351,2.9302303885928267e-05,0.0010121997,0.0024932988,0.00019307715,15.552407,-1.0,0.65688896,0.7278732,0.7284025,0.7284505,0.7279549
21.700000000000003,5.613313,0.3053318,-2.3755822,-0.029612835,-0.0022999581,0.0001976326,0.011400847,-0.01225774,0.005371868,0.000346355159246167,-0.006376779295242368,1.3907442335792986e-05,0.0026212311,0.0015554574,-0.0002771856,15.546408,-1.0,0.65355587,0.72846454,0.72790414,0.72861046,0.7278541
21.8,5.610658,0.30400026,-2.3753314,-0.028314712,-0.0042193313,0.00048393177,0.01504038,-0.011033988,0.0041299495,0.000618564949018592,-0.006237709550777544,-1.8533616260243875e-05,0.0025150524,0.0011473903,-0.0001375243,15.546408,-1.0,0.65355587,0.72817403,0.72845834,0.7287263,0.72787076
21.900000000000002,5.607636,0.30225122,-2.3753328,-0.027484482,-0.005734213,0.00035394216,0.0060323724,-0.00020386367,0.010455026,0.0009442845174224179,-0.006087874478361001,-4.146556208693826e-05,0.003888783,0.0020401303,-0.00048087578,15.540408,-1.0,0.6502228,0.728463,0.7280738,0.7279799,0.7285092
22.0,5.604431,0.30056405,-2.3756733,-0.027167406,-0.007122234,9.83201e-05,0.007205315,-0.0007853391,0.0017099081,0.0012511945151996242,-0.006015953818749579,-0.00010368545423969555,0.0041115144,0.000865095,-5.6347584e-05,15.540408,-1.0,0.6502228,0.7282934,0.72831357,0.72781026,0.7283981
22.1,5.600382,0.2990973,-2.3761964,-0.027271736,-0.007974008,8.012377e-05,0.002181272,-0.004252497,-0.00053877005,0.0015251819425582528,-0.006005126752691889,-0.00010333602667102787,0.0030031332,-9.219939e-05,-0.0003365059,15.534409,-1.0,0.6468897,0.7282964,0.7282183,0.7278923,0.72842836
22.200000000000003,5.5962815,0.29861632,-2.3769608,-0.027769847,-0.007775454,0.00019039017,0.00801002,0.0071560894,0.004059169,0.0017427292848938903,-0.006056660724554301,-0.00010402304163082062,0.00172302,-0.0009941156,0.00041149344,15.534409,-1.0,0.6468897,0.7282912,0.72828573,0.72804207,0.72832865
22.3,5.5919023,0.29857966,-2.3781586,-0.027852902,-0.0070578456,0.00018849054,0.009885454,-0.0025362896,0.0034812836,0.001861654049735777,-0.006203614974557923,-5.868696188503805e-05,0.0006662911,-0.0011110875,0.00051605154,15.528409,-1.0,0.6435566,0.7282422,0.72821635,0.7280169,0.7284846
22.400000000000002,5.5876093,0.29873413,-2.37923,-0.027897121,-0.006392733,0.0003024565,0.0077776383,0.0017064858,0.0079004085,0.0018370775791579695,-0.00634870860461389,-2.6001621136562473e-05,0.00059429684,-0.001288982,-0.00016827032,15.528409,-1.0,0.6435566,0.7285661,0.7279621,0.72780836,0.7287699
22.5,5.583475,0.29896697,-2.3797922,-0.027905852,-0.005630441,0.00011506184,0.019110015,0.007308944,0.0024442559,0.0017439092346196467,-0.006473078408715923,-1.6835384246164127e-06,-0.00078963506,-0.0018455848,0.0004054395,15.528409,-1.0,0.6435566,0.7284156,0.728035,0.72808456,0.72836196
22.6,5.579543,0.2995757,-2.380364,-0.027605318,-0.0043591433,0.00017005057,0.011180765,0.00830083,0.0020554287,0.0016900601342975945,-0.006590844000936218,3.63812445602554e-05,-0.0009606407,-0.0010562045,-0.0010843357,15.522409,-1.0,0.6402235,0.72828615,0.7281401,0.72814786,0.72839713
22.700000000000003,5.576414,0.30076125,-2.3811383,-0.026609287,-0.003146225,0.00030935465,0.01515808,0.0034525923,0.007247086,0.0015550958687748607,-0.0066913472409857785,4.41598490583957e-05,-0.0011295623,-0.0015601518,-0.0005380285,15.51641,-1.0,0.6368904,0.7289424,0.7276745,0.728357,0.7281204
22.8,5.5738335,0.30181253,-2.3814979,-0.025336329,-0.0025042053,0.00053322694,0.016211933,0.003362615,0.00012107193,0.0013512840093254355,-0.006695509882526077,0.00011289957877137821,-0.0024948306,-0.00031525813,-0.00032408527,15.51641,-1.0,0.6368904,0.72834617,0.72821766,0.72898394,0.7278829
22.900000000000002,5.571505,0.3021826,-2.3812575,-0.023857689,-0.002583845,0.0006438035,0.011652671,0.0009479217,0.0046552154,0.0012027759977845012,-0.006629250678542251,0.00012042888923715554,-0.000653699,0.001557383,-0.0001991783,15.51041,-1.0,0.6335573,0.7284457,0.7281789,0.7282613,0.72863966
23.0,5.569429,0.301858,-2.3806996,-0.022655472,-0.0035417385,0.0011016395,0.0071441913,-0.003949315,-0.0023539176,0.0011305369731494162,-0.006504445962740364,6.948095407444124e-05,0.00096614234,0.0014531991,0.00017637563,15.51041,-1.0,0.6335573,0.72869056,0.728362,0.7285557,0.7285818
23.1,5.5671,0.3010774,-2.3801723,-0.021665992,-0.0044609695,0.0007789129,0.015207182,-0.0021601408,-0.0012912786,0.0011771297703642813,-0.006376281343694931,-5.430708031891962e-06,0.0013332693,0.00044112577,0.0002408994,15.504411,-1.0,0.6302242,0.7286846,0.7283146,0.7286582,0.7282132
23.200000000000003,5.5649486,0.29995233,-2.3798552,-0.020990407,-0.0053917747,0.00073213916,0.012129935,0.007563044,-0.00444008,0.0013337725136512877,-0.0062742773834268,-2.545438065981832e-05,0.002071187,0.0003491551,9.7881144e-05,15.504411,-1.0,0.6302242,0.7286649,0.7282196,0.7287362,0.72823197
23.3,5.562215,0.2990244,-2.379694,-0.020614805,-0.0058696857,0.00074120174,0.012089443,0.0045928834,0.010611023,0.0014824719652624212,-0.006211146334585927,-5.040495781169354e-05,0.0015856997,-0.00083759456,1.3669072e-05,15.498411,-1.0,0.62689114,0.7286857,0.7282552,0.72874635,0.7281075
23.400000000000002,5.5593705,0.29845548,-2.3795228,-0.020691784,-0.0059481314,0.00071705546,0.004132267,0.0072136275,0.0040223817,0.0016339425084715932,-0.00615569203485013,-5.382721460099719e-05,0.00025661022,-0.00056328706,0.0003152787,15.498411,-1.0,0.62689114,0.7285234,0.72849476,0.7287934,0.7281091
23.5,5.55648,0.2977737,-2.3790774,-0.020802937,-0.0058144177,0.0008005347,0.013517295,0.0031853877,0.005585141,0.0016998932332012496,-0.006202108193373293,-2.6377111881426922e-05,8.690625e-05,-0.0005599371,0.00018970783,15.498411,-1.0,0.62689114,0.7284825,0.728534,0.72854537,0.72849804
23.6,5.553558,0.29689273,-2.3779817,-0.020916164,-0.0057345564,0.0011840347,-0.0013682,0.008018999,-0.0033299436,0.0017424427757887606,-0.006307287318410283,-1.455593092958466e-05,0.0014160728,-0.001839534,4.112495e-06,15.492412,-1.0,0.62355804,0.7292776,0.72796476,0.72858083,0.7287557
23.700000000000003,5.550294,0.2958457,-2.376851,-0.020892588,-0.0057750223,0.0010627839,0.007931235,0.008884709,-0.011644325,0.0017552571599560739,-0.006383960822516803,-1.1788535335927632e-05,0.0010051633,-0.0017682093,0.00025229284,15.486412,-1.0,0.62022495,0.72898984,0.7282578,0.728591,0.72871476
23.8,5.5472417,0.29511428,-2.3755012,-0.020807674,-0.005505915,0.0010365066,0.00961403,0.00096240407,-0.006665941,0.0017926990424376064,-0.006492977060484426,-3.4383824100052575e-05,0.0012024962,-0.00023900012,3.1272313e-05,15.486412,-1.0,0.62022495,0.7286019,0.72870606,0.7280536,0.72917515
23.900000000000002,5.543401,0.2938578,-2.3743029,-0.021240314,-0.005636003,0.0010138375,0.011158329,0.006640339,-0.0044684852,0.0017710855288504872,-0.006560442968777848,-3.82173237166267e-05,-0.00031658373,-0.0017401917,-0.00011655465,15.4804125,-1.0,0.61689186,0.7285723,0.72875565,0.72872746,0.7285135
24.0,5.5393066,0.29230827,-2.3732405,-0.021883843,-0.005964132,0.00084292726,0.008570313,0.0052978387,-0.0047255303,0.0017633048437445912,-0.006664351462021458,-3.2587997059412204e-05,0.0021143386,-0.0021218234,0.00035454004,15.4804125,-1.0,0.61689186,0.72893393,0.7282598,0.72825736,0.7289874
24.1,5.5349064,0.29041365,-2.3720212,-0.022590892,-0.006393856,0.00078978774,0.0134780845,0.006642299,-0.0027911735,0.001830184860530415,-0.006813216366464671,-3.978926578053266e-05,0.0011000355,-0.0032091911,0.00018321394,15.474413,-1.0,0.61355877,0.72876793,0.7283984,0.7287777,0.7284537
24.200000000000003,5.5315623,0.28786647,-2.3707461,-0.022190394,-0.007691579,0.0010158794,0.014163568,0.0053715976,-0.00012479721,0.0018872119382563016,-0.007015767806822389,-6.631755515740726e-05,0.0019310692,-0.002123685,-4.3517088e-05,15.474413,-1.0,0.61355877,0.72882587,0.7285475,0.7285526,0.72881746
24.3,5.528567,0.28424156,-2.369166,-0.021478247,-0.009244526,0.00091593707,0.012508102,0.007810882,-0.0052973623,0.0020478918133177014,-0.00712596636003725,-9.197541650316457e-05,0.0026422248,-0.001967707,0.0011395321,15.468413,-1.0,0.6102257,0.7290314,0.72829276,0.72894347,0.72839165
24.400000000000002,5.5261607,0.28037935,-2.3674812,-0.02059087,-0.010565341,0.0012407883,0.017071426,0.019554883,-0.0024121252,0.0022773291075769385,-0.0071504752095294735,-0.00017510006830039423,0.0027360977,-0.0006631916,-0.00033882156,15.468413,-1.0,0.6102257,0.72901917,0.72872686,0.728976,0.72841215
24.5,5.5242867,0.2761495,-2.3660998,-0.019164216,-0.012255597,0.0010657834,0.015869025,0.008095215,-0.0085891215,0.00255326755731263,-0.007119609114882883,-0.00022137614655967346,0.0037336214,0.000669944,-0.00013338347,15.468413,-1.0,0.6102257,0.7288672,0.7288021,0.7286598,0.728664
24.6,5.522429,0.27086738,-2.3649893,-0.017721474,-0.014060751,0.0008228867,0.013451058,0.012954647,-0.00895746,0.0028443886675263296,-0.007018269491813092,-0.00032648327004913607,0.0043290686,0.0012153735,-0.00048695266,15.462414,-1.0,0.6068926,0.72900295,0.72874224,0.7285076,0.7285133
24.700000000000003,5.52093,0.26566568,-2.3638759,-0.015976414,-0.015042643,0.000893764,0.011910591,0.021842085,-0.006618909,0.0031751104760291363,-0.006876175153764724,-0.0003054733417209004,0.0038236277,0.002515768,0.0003354484,15.456414,-1.0,0.6035595,0.728784,0.72880846,0.7284057,0.72890615
24.8,5.520071,0.2612368,-2.3631883,-0.014134705,-0.015448026,0.00080845976,0.010442325,0.019895855,-0.00067474315,0.0034696535413527743,-0.006695669617193731,-0.0002909990316099574,0.0032299522,0.0030625912,0.00044228244,15.456414,-1.0,0.6035595,0.72857314,0.72897214,0.7283259,0.72896785
24.900000000000002,5.5191526,0.2570255,-2.3630247,-0.012682372,-0.015227719,0.00051435776,0.011595369,0.01897352,-0.010102055,0.0036657988511694653,-0.006457276195787808,-0.00027420018508178805,0.0030715591,0.0025568923,0.0001480669,15.450415,-1.0,0.6002264,0.7290837,0.7283847,0.72830033,0.72883093
25.0,5.518801,0.25414628,-2.3629365,-0.011281266,-0.013896929,0.00010257626,0.006403479,0.022806905,-0.008867121,0.003776578650125259,-0.0062318089701730315,-0.00022283710725528328,0.0009438009,0.0022820134,0.0012787026,15.450415,-1.0,0.6002264,0.72872144,0.7284462,0.7282068,0.7286809
25.1,5.518554,0.25209674,-2.3630576,-0.010215001,-0.011968108,-0.0052112807,0.0058218916,0.02121585,-0.28074625,0.00371491540058171,-0.005998817051608053,-0.00015517238206894744,-0.0017164559,0.0037593362,9.521349e-05,15.444415,-1.0,0.5968933,0.750879,0.7506215,0.7563485,0.75692225
25.200000000000003,5.5181184,0.25050208,-2.3671207,-0.009407919,-0.010047074,-0.100286886,0.011325893,0.021086305,-1.5773227,0.0033388082708809886,-0.005669239916636091,-0.0006198687339478762,-0.0036060307,0.0009465535,-0.013118863,15.444415,-1.0,0.5968933,0.7863997,0.78715944,0.81771463,0.817414
25.3,5.5172276,0.24914542,-2.389987,-0.00856354,-0.007396576,-0.3267617,0.011341918,0.027021863,-2.6106708,0.003404801938342846,-0.005872601937600297,-0.0034790311043096578,0.0033683586,-0.003958226,-0.042002887,15.438416,-1.0,0.5935602,0.83439577,0.83526397,0.8629585,0.8636885
25.400000000000002,5.5165663,0.24841316,-2.4396677,-0.0066459426,-0.0043573654,-0.6294123,0.03622856,0.035997543,-3.557632,0.003980501353403181,-0.006509909106419501,-0.008713759702352815,0.0058874423,-0.0074126273,-0.05785824,15.438416,-1.0,0.5935602,0.87092054,0.87032235,0.8762219,0.8761704
25.5,5.5161586,0.24755926,-2.5253196,-0.0034350853,-0.0008640854,-1.0112976,0.04389147,0.04782084,-4.230871,0.004365248229302818,-0.0068514572794708215,-0.014494876426695138,-0.00035538423,0.00038288007,-0.055161223,15.438416,-1.0,0.5935602,0.90972185,0.9085344,0.8976154,0.89780706
25.6,5.515433,0.24696214,-2.6643414,-0.0006116264,0.0026241792,-1.3944823,0.027792111,0.032207746,-2.7017214,0.0035882170823887225,-0.006139235363411259,-0.019193310043671283,-0.011780181,0.011030633,-0.039979283,15.432416,-1.0,0.5902271,0.82002527,0.8202395,0.8025647,0.802797
25.700000000000003,5.514774,0.24638689,-2.836821,-0.0007467696,0.0037342322,-1.5822314,0.0039700004,0.016528912,-1.0275482,0.0023584762015061386,-0.00516849085325617,-0.022301072746042323,-0.01051646,0.0071173045,-0.022355156,15.426416,-1.0,0.58689404,0.7647143,0.7655831,0.7491855,0.7488732
25.8,5.5137534,0.24563593,-3.0071645,-0.0023800195,0.003073694,-1.6326222,-0.009426928,0.0005368488,-0.012470408,0.0016046194386427181,-0.004720107362418373,-0.02395601643468177,-0.0048985225,0.0015909511,-0.011107041,15.426416,-1.0,0.58689404,0.7210394,0.72190416,0.709419,0.70921826
25.900000000000002,5.512107,0.24507295,-3.1892638,-0.0046821693,0.0018851976,-1.5916141,-0.014128494,-0.00049068284,0.8166376,0.0014066046662624232,-0.004776236920609091,-0.024505562048378483,0.00020303234,-0.00333173,-0.0005257722,15.420417,-1.0,0.58356094,0.6829255,0.6830905,0.6738683,0.6736605
26.0,5.510121,0.24499674,-3.3462358,-0.0071598846,0.0011486928,-1.4960501,-0.011625998,-0.001483513,0.94239545,0.0015039165738414606,-0.005118323446830296,-0.02431503153766171,0.0014388209,-0.0042189024,0.0051257648,15.420417,-1.0,0.58356094,0.694828,0.69539684,0.6882928,0.68859273
26.1,5.508141,0.24522825,-3.5031662,-0.0082721105,0.0012382978,-1.4291109,0.0040556714,0.006787489,0.4547848,0.001650291239265885,-0.0057127064546481175,-0.023546215344458415,-0.00015735999,-0.006398368,0.009571505,15.414417,-1.0,0.58022785,0.7125758,0.7130401,0.7087698,0.708501
26.200000000000003,5.5070686,0.24536288,-3.640687,-0.008067127,0.0014517568,-1.4001256,0.0051821093,0.0042801904,0.19568157,0.0017211994133419035,-0.0063045326723022025,-0.022479564301737153,-2.4161302e-05,-0.0038709042,0.011844593,15.414417,-1.0,0.58022785,0.72319824,0.72346514,0.720722,0.72137994
26.3,5.5061393,0.2451132,-3.7860384,-0.0068601095,0.0009909284,-1.3891702,0.01071221,0.0039003433,0.038191672,0.0017024793027312817,-0.006702284520080104,-0.02128672452890342,0.0017687309,-0.003229041,0.01193084,15.408418,-1.0,0.57689476,0.7287585,0.72761816,0.7269425,0.7272431
26.400000000000002,5.505197,0.24405858,-3.919067,-0.0056505576,-0.000357949,-1.3889356,0.013345117,0.008452317,-0.034904104,0.0017128550547864992,-0.006875988713308567,-0.020052811536069772,0.001451992,-0.0009117648,0.0113746105,15.408418,-1.0,0.57689476,0.7308136,0.73061967,0.7302985,0.7302023
26.5,5.505255,0.24238104,-4.0521636,-0.0034880082,-0.001716648,-1.3934124,0.01699068,0.0013664507,-0.06945012,0.0018860605439282093,-0.006929921477054303,-0.018864879350411787,0.003909145,0.001090099,0.0116450265,15.408418,-1.0,0.57689476,0.73132646,0.7310884,0.73168945,0.731912
26.6,5.5055685,0.24055919,-4.1966467,-0.0015479517,-0.0029641783,-1.4001511,0.00567292,0.0029445281,-0.08233124,0.002228263926172081,-0.006804407966211468,-0.017748750301572174,0.005135576,0.0021811998,0.010857628,15.402418,-1.0,0.57356167,0.7308791,0.7304501,0.73325044,0.73316544
26.700000000000003,5.505581,0.23900878,-4.342051,-0.00045329393,-0.003196816,-1.40768,0.008201273,0.013380789,-0.08031073,0.0026481829053077483,-0.006578381056806602,-0.016833453783411938,0.005068468,0.0028806776,0.008399331,15.396419,-1.0,0.5702286,0.7301554,0.73027855,0.73327726,0.73383814
26.8,5.505811,0.23798925,-4.476693,0.00048198827,-0.0028214813,-1.4142599,0.008168446,0.011598702,-0.07192464,0.0030087810821751216,-0.006398924604006902,-0.016182296557437383,0.0043626106,0.0019957635,0.0049871765,15.396419,-1.0,0.5702286,0.73028445,0.7302437,0.7327372,0.7340094
26.900000000000002,5.5064645,0.23689441,-4.623144,0.0014322004,-0.0021024235,-1.4212904,0.005499336,0.020952873,-0.07475353,0.0032624567880212385,-0.006227312939605403,-0.015795768821990786,0.002535437,0.0019802463,0.0026322696,15.390419,-1.0,0.5668955,0.7304802,0.73054504,0.73263276,0.733034
27.0,5.50725,0.23584892,-4.7590733,0.0022920775,-0.0015013524,-1.4275457,-0.0014025626,0.018637186,-0.07154885,0.0034636240429221365,-0.006048662451377156,-0.015639943302600125,0.0016549067,0.0012306252,0.0011937474,15.390419,-1.0,0.5668955,0.7307402,0.7306546,0.73217225,0.7319224
27.1,5.5079193,0.23519094,-4.9072685,0.0026716858,-0.00022790462,-1.4338984,-0.0029057409,0.022782616,-0.06586406,0.003582962072644374,-0.005822615499297913,-0.015610766850406821,0.00029728477,0.002533521,-0.0007680368,15.384419,-1.0,0.5635624,0.7303965,0.7310474,0.7314021,0.7312029
27.200000000000003,5.5081935,0.23516512,-5.044692,0.0025751102,0.0017244775,-1.4392558,0.0009662453,0.019622937,-0.097952776,0.0036540375459390576,-0.00565732767303622,-0.015601467244232881,-0.0002825722,0.00030082816,-0.00020295664,15.384419,-1.0,0.5635624,0.7405202,0.7400519,0.74062055,0.7402696
27.3,5.507852,0.23568608,-5.1966763,0.002138744,0.004128751,-1.5002527,0.0011163355,0.019270062,-0.7411916,0.0035197669492506877,-0.0055684971320433254,-0.015607665854294087,-0.0021944009,-0.00013210112,-0.00046083602,15.37842,-1.0,0.5602293,0.7557942,0.75591487,0.75571334,0.755847
27.400000000000002,5.5071096,0.23594545,-5.344838,0.001171892,0.005768209,-1.5632013,-0.009152995,0.01451322,-0.58524305,0.0032409887496571144,-0.005581427120138082,-0.015599879204974508,-0.0030606207,-0.0015139513,0.0004539058,15.37842,-1.0,0.5602293,0.7545558,0.75457776,0.75442755,0.7544626
27.5,5.506357,0.23591226,-5.500001,0.0005895675,0.006839324,-1.6183892,0.0012160817,0.012436131,-0.5538943,0.002937115754604386,-0.0056984240756076335,-0.015609337800724227,-0.0009469666,-0.0016225124,-0.00085743074,15.37842,-1.0,0.5602293,0.74879473,0.7483316,0.7477176,0.7490351
27.6,5.506321,0.23543994,-5.6748285,0.0008604982,0.007262186,-1.6746074,0.005332349,0.0064330394,-0.50775194,0.002763739057612272,-0.005952235896520098,-0.01560813506928888,-0.0002881661,-0.0023160959,-6.83391e-05,15.37242,-1.0,0.5568962,0.7519791,0.7516686,0.75165576,0.75164026
27.700000000000003,5.5071692,0.23488377,-5.855806,0.0017664738,0.0077143814,-1.729882,0.0042666686,0.012434336,-0.51625675,0.0026146582784386907,-0.006098579128384609,-0.015567479153897775,2.6417543e-05,-3.1778814e-05,0.00049271947,15.366421,-1.0,0.5535631,0.7475061,0.7474906,0.7474339,0.74754894
27.8,5.5088882,0.23444049,-6.0273247,0.0035065042,0.0077131656,-1.7797382,0.003795998,0.008935272,-0.5038711,0.002584848020483205,-0.00607028129455788,-0.015546703641314736,-0.00011859204,0.0016489689,-0.0015178014,15.366421,-1.0,0.5535631,0.7520146,0.75219434,0.7523747,0.7518416
27.900000000000002,5.511594,0.23426268,-6.2183676,0.0055548106,0.008197647,-1.8356216,0.0043323925,0.019102488,-0.5342611,0.002623893465505405,-0.0057633822812848436,-0.015569281596495226,0.0007432044,0.0054522245,0.00018481474,15.360421,-1.0,0.55023,0.7485956,0.7489902,0.7485778,0.7487808
28.0,5.514423,0.23482867,-6.400028,0.0072551044,0.009354045,-1.8879297,0.007221673,0.017101305,-0.539991,0.0026907239940496663,-0.005258025488951849,-0.015560022860174489,8.196215e-05,0.0070310454,0.00056025037,15.360421,-1.0,0.55023,0.7535896,0.753702,0.7533693,0.75376254
28.1,5.516739,0.23618762,-6.6024957,0.007854683,0.0112344865,-1.9475098,-0.01079001,0.008712884,-0.57058406,0.0025897915838903854,-0.004621174576315219,-0.015509721034654339,-0.0031619372,0.0072836974,-0.00064674945,15.354422,-1.0,0.54689693,0.7499791,0.7507836,0.7504406,0.7504206
28.200000000000003,5.518176,0.23787773,-6.794983,0.0074142907,0.012876462,-2.0038095,-0.016603865,0.010283508,-0.58225864,0.0022531171963796246,-0.004054740704501243,-0.015470220450876574,-0.004890301,0.005173258,-5.1242332e-05,15.354422,-1.0,0.54689693,0.75467896,0.75519514,0.75493175,0.75510925
28.3,5.519244,0.24013945,-7.0103216,0.006153252,0.014509182,-2.0669794,-0.010406278,0.0017094539,-0.6080186,0.001847091434806525,-0.0036872940850469814,-0.015406483198637622,-0.0059132203,0.0029417477,0.0006404389,15.348422,-1.0,0.54356384,0.7514788,0.7520907,0.7519915,0.75193346
28.400000000000002,5.51936,0.24215588,-7.215277,0.0041079405,0.015284207,-2.1267776,-0.025218925,-0.00041639167,-0.62418306,0.0012944358200738346,-0.0034503314057174337,-0.015388700864507813,-0.0066299476,0.0017362323,-0.00084298576,15.348422,-1.0,0.54356384,0.75570065,0.75671095,0.7563119,0.7563822
28.5,5.5187745,0.24383444,-7.4260573,0.0018403137,0.015033257,-2.1883402,-0.019706342,-0.0027732416,-0.6452584,0.000765719997884714,-0.0035166659340509776,-0.015387681252267717,-0.005329074,-0.0021658163,0.0005789311,15.348422,-1.0,0.54356384,0.75301313,0.75352395,0.75351536,0.7532568
28.6,5.5174127,0.24541579,-7.6614523,-0.00105107,0.013968902,-2.2563062,-0.018638711,-0.012045662,-0.6446158,0.0003817461629197712,-0.003799868287817643,-0.01540971706787841,-0.0025002854,-0.0049088667,-0.001636897,15.3424225,-1.0,0.54023075,0.75779843,0.7577449,0.757928,0.75766087
28.700000000000003,5.5152416,0.24681598,-7.9041576,-0.0033630044,0.012492471,-2.3270574,-0.012893824,-0.016701845,-0.66752446,0.00015613392188953997,-0.004220125990340246,-0.015398893568501099,-0.0016844816,-0.005763668,-0.0003746041,15.336423,-1.0,0.53689766,0.7550849,0.7547703,0.7552601,0.7547462
28.8,5.5127583,0.24777521,-8.134776,-0.005739688,0.010456592,-2.3935971,-0.0128601,-0.01948215,-0.68807507,6.0717396282298244e-05,-0.004781970108555035,-0.015426316298962779,-0.00087015156,-0.0064621484,-0.00031412716,15.336423,-1.0,0.53689766,0.7590703,0.75978136,0.7596278,0.75921977
28.900000000000002,5.5094156,0.24829869,-8.391741,-0.0077653164,0.00793507,-2.468405,-0.0031895668,-0.011717107,-0.7083392,8.203809168922956e-05,-0.005450313032337887,-0.015439807366444205,0.0010122432,-0.0078494605,-0.0005290816,15.330423,-1.0,0.53356457,0.7566496,0.75706625,0.75690806,0.7568493
29.0,5.505906,0.24833506,-8.635505,-0.008837893,0.0055864695,-2.53917,0.011658505,-0.016589306,-0.7316004,0.00023493986788189925,-0.006210768263487992,-0.015458124020668727,0.0018142475,-0.007487681,-0.00041603023,15.330423,-1.0,0.53356457,0.7608831,0.7618091,0.76123554,0.76145715
29.1,5.5022826,0.2485176,-8.906535,-0.008871122,0.0037093842,-2.618742,0.023191758,-0.010394783,-0.7562688,0.0005131544780996191,-0.006998458316549093,-0.01549376183094299,0.0023192351,-0.008267977,-0.0008034991,15.324424,-1.0,0.5302315,0.7590802,0.7592051,0.7594675,0.7587081
29.200000000000003,5.4993067,0.24917692,-9.163318,-0.007671479,0.0028501186,-2.6939633,0.020868434,-0.010590297,-0.7803761,0.0007812876666064623,-0.007681799350324022,-0.015544767524877288,0.0019915167,-0.0064189103,-0.0011875861,15.324424,-1.0,0.5302315,0.76394,0.7637242,0.76386154,0.7634915
29.3,5.496614,0.24986753,-9.449442,-0.005213815,0.0022692238,-2.7788544,0.029671185,-0.005185294,-0.8173743,0.0009817590271887406,-0.008200232619146212,-0.015564338385623327,0.0015581377,-0.003081341,-0.0005573777,15.318424,-1.0,0.5268984,0.76177514,0.76177895,0.7611734,0.7621394
29.400000000000002,5.4946456,0.24988204,-9.721461,-0.0026884598,0.0015346524,-2.8596413,0.031157544,-0.006795767,-0.83894557,0.001027807725305752,-0.00848541763172964,-0.015546355858122515,-7.2721887e-06,-0.0015224417,0.00011785041,15.318424,-1.0,0.5268984,0.7658835,0.7661255,0.7659154,0.7661141
29.5,5.4932914,0.2496142,-10.001241,0.00034922446,0.0007582601,-2.943165,0.042844728,-0.009285105,-0.8910037,0.0010447526205651621,-0.008606830153362355,-0.01555387507176553,0.0016240346,0.0008032044,-0.00054411346,15.318424,-1.0,0.5268984,0.7640197,0.76392555,0.7634518,0.7645247
29.6,5.4921823,0.24944271,-10.313408,0.0030911167,6.826648e-05,-3.0111666,0.026240539,-0.0005195261,-0.15686917,0.0011547198228258984,-0.008598159870800108,-0.01558567724947833,0.0011480812,0.00094871724,-0.0013725237,15.312425,-1.0,0.5235653,0.7159805,0.7162062,0.71582013,0.716204
29.700000000000003,5.4912624,0.24992381,-10.626987,0.005147817,-0.00016807498,-2.9775891,0.023664815,-0.0044199,0.42145652,0.0012690817110873932,-0.00848386426074123,-0.015618115625198888,0.00082696247,-0.00049959566,-0.00056224683,15.306425,-1.0,0.5202322,0.7118888,0.71095157,0.7115456,0.7110084
29.8,5.4902387,0.2504782,-10.911774,0.0066752345,-7.7410645e-05,-2.949466,0.018021982,-0.010407777,0.1988639,0.0013162079665718061,-0.008393316068365651,-0.015621181932625641,9.995776e-05,0.0003305023,0.0006358144,15.306425,-1.0,0.5202322,0.72171193,0.72119385,0.72123015,0.72150445
29.900000000000002,5.4893956,0.2512032,-11.216623,0.008531679,-5.0516617e-05,-2.936319,0.026364798,0.0015718278,0.05779089,0.0012889916760848391,-0.008335677082637289,-0.01564402177168707,-0.00052796805,-0.0003252037,-0.0012318059,15.300426,-1.0,0.5168991,0.7268976,0.72633994,0.7267035,0.7262927
30.0,5.4890876,0.25263032,-11.496068,0.01044414,0.0003970025,-2.9331274,0.017109362,-0.0022964221,-0.006489921,0.001219673483096848,-0.008288254998032372,-0.015616924443607481,-0.00060105405,-0.00023353205,0.0002367537,15.300426,-1.0,0.5168991,0.7300272,0.72926366,0.7295705,0.72967887
30.1,5.4894705,0.25503427,-11.797852,0.012849466,0.0012901486,-2.9348419,0.024227163,-0.0071703354,-0.051573846,0.0010397173296218753,-0.008150595843579312,-0.015595303639756494,-0.0027163643,0.0023205273,-0.0005673881,15.3,-1.0,0.51384926,0.7310383,0.7313481,0.73107374,0.73136437
30.200000000000003,5.490392,0.25728393,-12.076745,0.01505129,0.0020872236,-2.9392135,0.020069705,-0.004358625,-0.06338907,0.0007105109863632254,-0.007925753201133312,-0.015590066491193644,-0.0041267034,0.0027345438,0.00058272853,15.3,-1.0,0.51384926,0.7320206,0.73172915,0.731788,0.73189694
30.3,5.4920654,0.2591811,-12.379336,0.017395746,0.0021066244,-2.9451969,0.014822977,-0.017775042,-0.07209228,0.00023296522916646398,-0.007579926566742532,-0.0155879442752954,-0.005117974,0.0047125113,-0.00076156633,15.3,-1.0,0.5113497,0.73171514,0.7322114,0.73180807,0.7320367
30.400000000000002,5.494346,0.26051328,-12.65927,0.019797137,0.0015228516,-2.9510434,0.01066532,-0.018986892,-0.077087425,-0.0002106784405237288,-0.007137543180823654,-0.015580846803497646,-0.0032015264,0.0062197177,-0.00014402886,15.3,-1.0,0.5113497,0.7316417,0.7319135,0.7315101,0.73203605
30.5,5.4974713,0.2613955,-12.9402275,0.021775724,-3.8584236e-05,-2.9568713,0.006043219,-0.023604728,-0.07158285,-0.0005017055069365225,-0.006554897830261631,-0.015554129331625857,-0.0010012521,0.0069159134,-0.00040162593,15.3,-1.0,0.5113497,0.731681,0.7309376,0.73121697,0.731502
30.6,5.50145,0.26178157,-13.245389,0.023660176,-0.0019497587,-2.9622505,-0.003719913,-0.01877682,-0.059781592,-0.0006467191881332914,-0.0058500014931061484,-0.015519633272741478,-0.0006408342,0.0072369943,0.000751596,15.3,-1.0,0.5093012,0.7310313,0.73071814,0.7312758,0.730775
30.700000000000003,5.5058675,0.26136068,-13.551499,0.024379617,-0.004541326,-2.9669137,-0.010962921,-0.016630664,-0.046641562,-0.0005966586637096783,-0.00503591584454414,-0.015488625206725292,0.0016786364,0.009283598,0.00043781678,15.3,-1.0,0.5076227,0.7301092,0.7308079,0.7303981,0.7309305
30.8,5.5099277,0.26017687,-13.834341,0.023947783,-0.007014117,-2.9703362,-0.02110791,-0.015801659,-0.044067387,-0.00037429012371297964,-0.004255278925108833,-0.015509859244563814,0.0034420805,0.007842829,-0.00041771284,15.3,-1.0,0.5076227,0.7302576,0.73044044,0.7303841,0.73052895
30.900000000000002,5.5135193,0.25873032,-14.141466,0.022391485,-0.008841229,-2.9736977,-0.026366819,-0.013350871,-0.040864103,2.029025636836262e-06,-0.0035302848598507503,-0.015504752237785425,0.004321109,0.006139355,0.00023819713,15.3,-1.0,0.5062475,0.73017436,0.73007935,0.7303901,0.73011684
31.0,5.5159273,0.25766912,-14.4255705,0.019788943,-0.009945283,-2.9764087,-0.03860275,-0.010380041,-0.034675,0.0004468367287098434,-0.0029842299727782713,-0.015510900791731017,0.0048285522,0.004364005,-3.3993965e-05,15.3,-1.0,0.5062475,0.72987425,0.72989535,0.7297759,0.73016226
31.1,5.5173516,0.25672442,-14.734412,0.016232984,-0.010183338,-2.979058,-0.034629665,-0.0040570986,-0.028740147,0.0008589205895029371,-0.0026652374526364288,-0.015539495538747792,0.0027598578,0.0020981722,-0.0005738259,15.3,-1.0,0.5051174,0.72918934,0.7298736,0.7292846,0.7297166
31.200000000000003,5.518143,0.2551818,-15.020292,0.0126561085,-0.010472004,-2.980946,-0.035948608,0.00020091145,-0.010904855,0.0011317120348040921,-0.0026556645078048557,-0.015547000215141044,0.0015676304,-0.0012310046,3.0123338e-05,15.3,-1.0,0.5051174,0.72874403,0.7293519,0.7291312,0.7289046
31.3,5.5189843,0.2527821,-15.330564,0.0091658635,-0.011088924,-2.9822361,-0.034367483,0.0017920232,-0.0073043625,0.0014220660707995783,-0.0028716318273661456,-0.015526957238933648,0.0029304281,-0.0026968562,0.00056465616,15.3,-1.0,0.50419426,0.72846556,0.7288517,0.7286653,0.72874516
31.400000000000002,5.520093,0.25014836,-15.617034,0.0068834196,-0.011701927,-2.9828053,-0.02154203,0.005570003,-0.010702292,0.001754056429034101,-0.0031751357150226053,-0.015558266967990455,0.005092609,-0.0029253988,-0.00031967476,15.3,-1.0,0.50419426,0.72896206,0.7282305,0.72817063,0.7288271
31.5,5.52109,0.24736117,-15.90346,0.0050352984,-0.012292276,-2.983004,-0.018681457,0.007258003,-0.0017327255,0.0021916260930149797,-0.003429036334770859,-0.015542760131026739,0.006063977,-0.0021005631,-0.00048202564,15.3,-1.0,0.50419426,0.72884774,0.7283071,0.7284353,0.7286414
31.6,5.5211306,0.24429479,-16.21346,0.0022163638,-0.01228404,-2.983203,-0.019244596,0.024458596,-0.009941402,0.002715138114834572,-0.003582373555451927,-0.01551347271207986,0.00638,-0.001640679,8.7172e-05,15.3,-1.0,0.5034361,0.72878784,0.7285699,0.72839195,0.72906095
31.700000000000003,5.5202675,0.24095835,-16.523659,-0.00060134765,-0.011901514,-2.9834938,-0.02013518,0.020555604,-0.0037504358,0.003220454712416167,-0.003821295111954315,-0.015514193530236349,0.0050768615,-0.003593717,0.00029987292,15.3,-1.0,0.5028162,0.72887206,0.7286788,0.72880775,0.72873574
31.8,5.5193067,0.23756838,-16.81004,-0.0030177156,-0.011549185,-2.983696,-0.006621978,0.027409082,0.019860918,0.003715441750687046,-0.004213673002560124,-0.015531161513823,0.0047590253,-0.0059257853,-0.0013699315,15.3,-1.0,0.5028162,0.7192513,0.71908236,0.7194828,0.71870804
31.900000000000002,5.518078,0.23388153,-17.1178,-0.0052499883,-0.010962511,-2.923456,-0.011111858,0.022285603,1.1298796,0.004261522634653614,-0.004671030987422314,-0.015511334074224814,0.006266886,-0.0046799383,0.00027581188,15.3,-1.0,0.50230694,0.65640926,0.6562481,0.6560255,0.6566082
32.0,5.5164204,0.23094104,-17.389908,-0.0076468387,-0.009792978,-2.7578096,-0.017991442,0.029464938,2.1681955,0.004806817191914759,-0.005161618332152998,-0.01548271574981813,0.0050619557,-0.005050409,0.00012411682,15.3,-1.0,0.50230694,0.6134309,0.61405534,0.6138712,0.6138048
32.1,5.5143256,0.2283213,-17.659042,-0.010113423,-0.008139076,-2.480835,-0.013604433,0.027513023,3.0130236,0.005323956210980509,-0.005763912376962018,-0.01549162637778714,0.0039115963,-0.0064750877,-0.0007687576,15.3,-1.0,0.50230694,0.5627553,0.56319195,0.5630746,0.56285524
32.2,5.5124116,0.22663532,-17.87434,-0.011939027,-0.0062988703,-2.1503174,-0.017405467,0.021745559,3.5891826,0.005690000705376752,-0.006429590759929866,-0.015464048089037254,0.004138036,-0.006983988,9.280587e-05,15.3,-1.0,0.50189114,0.55783904,0.557181,0.55724657,0.557958
32.300000000000004,5.5102525,0.22550899,-18.066696,-0.0133097265,-0.0038597442,-1.792176,-0.008370629,0.023194037,3.1932209,0.005927541363602866,-0.007074135953616433,-0.015444952535041556,0.0012807488,-0.0058963806,0.0002814888,15.3,-1.0,0.5015497,0.5686806,0.5687621,0.56870615,0.56892514
32.4,5.5080953,0.22529355,-18.20899,-0.014143986,-0.000725253,-1.4884975,-0.002386112,0.03093171,3.002594,0.005985480469901043,-0.007679284283033215,-0.015456953662666646,-0.0004947677,-0.0056277323,-0.0012615265,15.3,-1.0,0.5015497,0.58828694,0.5880936,0.5880441,0.5883972
32.5,5.5060287,0.2259251,-18.320164,-0.01431118,0.0026399887,-1.2013968,-0.0038160086,0.019744413,2.8249788,0.005794708256945087,-0.008216795353093224,-0.015434494741428372,-0.0036124713,-0.004609985,-7.794096e-05,15.3,-1.0,0.5015497,0.5880162,0.5881824,0.5883141,0.58809763
32.6,5.503581,0.22735357,-18.408934,-0.013977602,0.0063434285,-0.90249324,0.006888132,0.02274001,2.7595494,0.005380183211545188,-0.00866948314170472,-0.015443823459406873,-0.005051848,-0.005508142,-0.00010930139,15.3,-1.0,0.5012703,0.5996138,0.5987296,0.5994294,0.59905535
32.7,5.5009546,0.22904037,-18.466404,-0.013517774,0.009858178,-0.6101614,0.00527379,0.02010975,2.6794,0.004773086875856551,-0.008999088484948453,-0.01548223325840569,-0.006754174,-0.0027190954,-0.00073048315,15.3,-1.0,0.50104046,0.59371114,0.59386003,0.593458,0.59405476
32.800000000000004,5.4988728,0.23069319,-18.492338,-0.0128273815,0.012211761,-0.34133315,0.010588549,0.01363599,2.756226,0.004035111229038459,-0.00936971388404827,-0.015507218641205599,-0.007374833,-0.002815148,0.00055803463,15.3,-1.0,0.50104046,0.6045742,0.60467815,0.6043273,0.60479414
32.9,5.4975276,0.23229791,-18.4937,-0.011018242,0.014008262,-0.11214419,0.023359422,0.010635147,1.8648802,0.0033402315558155797,-0.00970597100316235,-0.015546421060193846,-0.0068818745,-0.0028053194,1.827626e-06,15.3,-1.0,0.50104046,0.6530718,0.65306133,0.65312463,0.6528087
33.0,5.4974008,0.23379943,-18.475903,-0.0075412174,0.015625529,0.03119465,0.02293955,0.00847175,0.8072364,0.0026910104356376438,-0.009832819042231976,-0.015558409410647522,-0.0071264766,-0.00067998737,-0.0009992941,15.3,-1.0,0.50085354,0.70182973,0.7016856,0.7024448,0.7009902
33.1,5.4988003,0.23517162,-18.451324,-0.0022415228,0.016898135,0.06666965,0.034751147,0.0047617215,-0.17767724,0.0021174663099531245,-0.009648582030351915,-0.015577387179327155,-0.0057554077,0.0043732445,-0.0014468146,15.3,-1.0,0.50085354,0.74540895,0.7456344,0.7457556,0.7451766
33.2,5.501114,0.2369536,-18.433651,0.003601956,0.017798888,0.0076843575,0.04370984,-0.00038815822,-0.8774725,0.0016207753700196311,-0.009063260120976784,-0.015609365117846632,-0.0037037442,0.008207509,-0.0011463321,15.3,-1.0,0.5007,0.762733,0.76206124,0.7621999,0.76244724
33.300000000000004,5.504312,0.23953803,-18.426987,0.009225953,0.018950386,-0.059392914,0.029439216,-0.010140349,-0.48573777,0.001114717500374637,-0.008049727974292858,-0.015622040325489136,-0.005998737,0.011536035,-3.141824e-05,15.3,-1.0,0.50057316,0.7452016,0.7457396,0.74577373,0.7451605
33.4,5.5066624,0.24202898,-18.42942,0.0122985635,0.019566858,-0.08951967,0.017596453,-0.009675284,-0.21205935,0.0005868496459768587,-0.0068553434388036304,-0.015655118039432783,-0.005847839,0.011101795,-0.000368618,15.3,-1.0,0.50057316,0.7340894,0.73395467,0.7341003,0.73380214
33.5,5.5080485,0.24431548,-18.43651,0.013030022,0.01964178,-0.09991996,0.0031812668,-0.01613477,-0.031138303,5.761719307620459e-05,-0.005821780442508502,-0.0156925290681561,-0.0052671353,0.008955702,1.02696795e-05,15.3,-1.0,0.50057316,0.72745866,0.7281322,0.72750574,0.7277582
33.6,5.5090103,0.24608374,-18.44615,0.01241488,0.018972106,-0.097611815,-0.010522568,-0.018728895,0.06662681,-0.000440387299708632,-0.005139639765676307,-0.015665084671271562,-0.004931389,0.0046860366,0.00043967157,15.3,-1.0,0.50047016,0.72397774,0.7244001,0.7241902,0.7240961
33.7,5.5097475,0.24700156,-18.45599,0.011025468,0.017171433,-0.08834059,-0.0043914914,-0.019136358,0.11440086,-0.000812405096580396,-0.004796082454900524,-0.01566833931505021,-0.003468882,0.0017459708,0.00021300792,15.3,-1.0,0.5003853,0.7223299,0.72304267,0.72270876,0.7225115
33.800000000000004,5.5109444,0.24722964,-18.464748,0.009847737,0.014971934,-0.07675649,-0.01678429,-0.026300926,0.13312976,-0.0009652294385023928,-0.004731934872258085,-0.015667902454185655,-0.0005317666,0.00024192326,0.00086544064,15.3,-1.0,0.5003853,0.72189105,0.722373,0.72214675,0.7219745
33.9,5.5129805,0.2465698,-18.472626,0.009535869,0.0118896505,-0.06446514,-0.011863277,-0.025087358,0.13287225,-0.0008916144067734088,-0.0047479400012566024,-0.01563395944453333,0.0028543158,0.001165103,0.00034681638,15.3,-1.0,0.5003853,0.72214156,0.7221392,0.72196716,0.72234505
34.0,5.5158944,0.24486347,-18.480272,0.010010056,0.008255017,-0.051484495,-0.01609582,-0.018945262,0.13417284,-0.00057357765442149,-0.004610995311023596,-0.015622537673417881,0.0044180024,0.0044070603,-0.00059156143,15.3,-1.0,0.50031567,0.72192585,0.72294676,0.7223278,0.722581
34.1,5.518955,0.24259616,-18.486639,0.009817395,0.005056138,-0.039297555,-0.018227806,-0.011253776,0.116035335,-1.607643392159438e-05,-0.004270107978244654,-0.015585965650903743,0.0067410385,0.0040640705,0.000868467,15.3,-1.0,0.50031567,0.7228662,0.72291553,0.72324795,0.7226923
34.2,5.5218506,0.24013536,-18.491127,0.009377584,0.0023503352,-0.028755419,-0.017275678,0.0023109422,0.10569067,0.0006723374702157764,-0.0038482557180976743,-0.01557794064191043,0.0076752882,0.004236441,0.00020570973,15.3,-1.0,0.50025845,0.72365826,0.72377783,0.7239259,0.7236292
34.300000000000004,5.525077,0.23716937,-18.49472,0.008661267,-2.0838794e-05,-0.01921212,-0.024417963,-0.00012138161,0.09064702,0.0014467812908814024,-0.0033842726295708675,-0.015510760676704396,0.008136504,0.0059010284,0.0010802809,15.3,-1.0,0.50021267,0.72397655,0.72469383,0.7244938,0.72464484
34.4,5.5275726,0.23497376,-18.497845,0.0072388537,-0.00072664616,-0.012155543,-0.027016701,0.006982718,0.077123284,0.002247537754856485,-0.002942929039600117,-0.015513560459472709,0.008884963,0.0046341303,-0.00010074471,15.3,-1.0,0.50021267,0.7249494,0.724556,0.7244639,0.7252602
34.5,5.529064,0.23339452,-18.501114,0.0049888715,-0.00022439063,-0.0058140145,-0.024787934,0.014220214,0.07905531,0.00292559265713978,-0.0025734578898473333,-0.015525747344916982,0.005750365,0.0031249837,0.00013645593,15.3,-1.0,0.50021267,0.72483003,0.7249596,0.7246646,0.72516745
34.6,5.529498,0.23221348,-18.504395,0.0010152095,0.0013612125,0.0005404106,-0.03077345,0.023451596,0.07125455,0.0033547305108982102,-0.002415956600017489,-0.015529684408699498,0.003915486,0.00055585866,-3.1863798e-05,15.3,-1.0,0.5001745,0.72495127,0.7250488,0.7243811,0.72555864
34.7,5.529668,0.23138246,-18.507378,-0.002836509,0.003406925,0.0064434963,-0.029201392,0.025590291,0.07473956,0.0035437139654048095,-0.002598455091988162,-0.015495108951522358,0.0012950368,-0.00402053,-0.00023119833,15.3,-1.0,0.5001421,0.72525793,0.7247421,0.7249795,0.7251569
34.800000000000004,5.5300875,0.23085205,-18.509188,-0.0054985904,0.005457767,0.012087738,-0.024104735,0.029294694,0.05998369,0.003584794756366496,-0.0029842089061495073,-0.015478278433048881,-0.0012198027,-0.0038422293,-0.0013288955,15.3,-1.0,0.5001421,0.72523206,0.7257591,0.72564244,0.7254448
34.9,5.530562,0.23076674,-18.51038,-0.007563419,0.007693416,0.016898941,-0.01722658,0.021339295,0.061779745,0.003460192499742883,-0.0033681710490457138,-0.015478945714428396,-0.0018274683,-0.00335087,-0.001177456,15.3,-1.0,0.5001421,0.72598886,0.7259706,0.72578245,0.7261165
35.0,5.531406,0.23083776,-18.51109,-0.008999598,0.009929289,0.021199306,-0.022177089,0.026104063,0.049560327,0.003225095006433561,-0.0036742708308516673,-0.015443620024732057,-0.0033237326,-0.0011755228,0.00034559448,15.3,-1.0,0.50011826,0.72605044,0.72672373,0.72624785,0.7266007
35.1,5.53296,0.2308003,-18.511242,-0.009618658,0.011195935,0.02455175,-0.020502046,0.013094414,0.04171859,0.002962243337990541,-0.0038801224454441258,-0.015388225271376711,-0.0021277687,-0.0012666683,-0.0002562774,15.3,-1.0,0.50011826,0.72696674,0.72635496,0.7268745,0.7268182
35.2,5.5349765,0.23102055,-18.510847,-0.009432913,0.012227519,0.026827618,-0.0129054105,0.009832953,0.032299194,0.0027449072690789176,-0.003913662661995589,-0.015402482387514672,-0.0016979204,0.00055216625,-0.0008127067,15.3,-1.0,0.5000963,0.72742754,0.72670346,0.7274043,0.7268228
35.300000000000004,5.5373416,0.23146202,-18.509325,-0.009041142,0.013225843,0.02886874,-0.012659383,0.009539311,0.022674443,0.0025352222946112097,-0.00372693654470463,-0.015384560520485067,-0.0016196631,0.0032806052,-0.0008632339,15.3,-1.0,0.50007725,0.72781944,0.72731113,0.7276205,0.72771275
35.4,5.539444,0.23187317,-18.507341,-0.009214127,0.013970913,0.029916167,-0.014658047,0.009111454,0.012092291,0.002345488000652175,-0.003418589907562005,-0.015382789305760532,-0.0011841683,0.0033014605,-0.0007978289,15.3,-1.0,0.50007725,0.7284381,0.72780675,0.72821605,0.7282176
35.5,5.5412183,0.2324441,-18.505266,-0.009791377,0.014835105,0.029913682,-0.017734433,0.0058657113,0.0007171183,0.0021757096825985186,-0.003044124571027533,-0.015386226685012811,-0.0020875565,0.0041498668,0.00020386923,15.3,-1.0,0.50007725,0.7282316,0.7285214,0.72852135,0.7284355
35.6,5.5424914,0.23300216,-18.503283,-0.011341608,0.015430215,0.029270194,-0.02354719,-0.0011975325,0.00020116566,0.001955854156565167,-0.002733295544403752,-0.015418377643862642,-0.0035138226,0.0030221478,-0.00075871416,15.3,-1.0,0.50006676,0.7280339,0.72887766,0.7287472,0.72820896
35.7,5.542804,0.23355782,-18.50155,-0.013349883,0.01560676,0.02844751,-0.031979438,-0.0022335097,-0.0013024545,0.0017586023344155811,-0.0025847698179837673,-0.015391959494347593,-0.002167842,0.0009883627,7.756389e-05,15.3,-1.0,0.50005627,0.7282182,0.7284454,0.7286587,0.7282853
35.800000000000004,5.542023,0.23413548,-18.50054,-0.01581623,0.015690245,0.027528476,-0.02949626,-0.0041924347,0.0012554227,0.0016009318761558572,-0.0025785605489952166,-0.015423959138741136,-0.0019803103,-0.001363353,0.0005295922,15.3,-1.0,0.50005627,0.7280298,0.7282054,0.7281245,0.7281016
35.9,5.5402827,0.2348992,-18.500074,-0.018448394,0.015842328,0.027038004,-0.029337259,0.0037139028,0.0050291414,0.0015070677537395265,-0.002809597620262699,-0.015428744976572909,-0.0011090285,-0.0039003573,-0.00093474245,15.3,-1.0,0.50005627,0.7278542,0.7277089,0.7279716,0.7276725
36.0,5.537163,0.23573737,-18.499687,-0.021632902,0.015920997,0.027101738,-0.020067655,0.0056039304,0.008357222,0.0013666243973357137,-0.00328609749264687,-0.015452824389159138,-0.0021143584,-0.0068285265,-0.000842018,15.3,-1.0,0.5000458,0.7276562,0.72761303,0.72784483,0.72732615
36.1,5.5333276,0.23671418,-18.49962,-0.024432573,0.015837815,0.027692746,-0.024770206,-3.9299262e-05,0.015761701,0.0012338022077420729,-0.003962083298243242,-0.015484433177113982,-0.00030274378,-0.0071544093,-0.0007997004,15.3,-1.0,0.5000458,0.7276985,0.72742873,0.7269486,0.72792375
36.2,5.5296717,0.23747002,-18.49955,-0.025743635,0.015394756,0.02857054,0.005000443,-0.0076395622,0.020483041,0.0010936776879891751,-0.004843963569139283,-0.015499390098735352,-0.0002343098,-0.008557805,-0.0012719171,15.3,-1.0,0.5000353,0.7277521,0.7273129,0.7270758,0.72779894
36.300000000000004,5.5257583,0.2378902,-18.499352,-0.025901135,0.014220607,0.029256478,0.0033132744,-0.0058618863,0.025683546,0.00100305882659286,-0.005700896522993909,-0.015517051341377625,-4.2808882e-05,-0.008066802,-0.00075692585,15.3,-1.0,0.5000267,0.72763216,0.72735465,0.727582,0.72718644
36.4,5.5223546,0.23814838,-18.498966,-0.024604259,0.013013747,0.029934768,0.015997117,-0.009701044,0.025927553,0.0010000109976787818,-0.006449330264227177,-0.015524586743371064,0.00020174569,-0.0057386393,-0.00028946443,15.3,-1.0,0.5000267,0.72738665,0.727683,0.7276285,0.7273508
36.5,5.5193286,0.2384315,-18.497938,-0.02269553,0.011905791,0.030696198,0.019271687,-0.0056537907,0.019695608,0.0010779309308257177,-0.007013890393472025,-0.015505584484282563,0.0009062882,-0.004656509,-0.00044560176,15.3,-1.0,0.5000267,0.7279263,0.7276295,0.7281466,0.7275086
36.6,5.5167074,0.23896812,-18.496408,-0.019975137,0.011377632,0.03082917,0.02256099,0.00083385746,0.0139549365,0.0012106770581205852,-0.007385949017356638,-0.015544710128326313,-0.0006623023,-0.0028821365,-0.0009928087,15.3,-1.0,0.5000267,0.72789705,0.7283213,0.7286727,0.7273664
36.7,5.5142984,0.23958856,-18.494736,-0.017338365,0.011331442,0.03053612,0.021163817,-0.0022867706,0.0039446163,0.001268045240509347,-0.007558021703014799,-0.015544658844595426,-0.0006261083,-0.00014831321,7.245085e-05,15.3,-1.0,0.5000267,0.72823346,0.7282454,0.7282468,0.7282344
36.800000000000004,5.51223,0.24003777,-18.49267,-0.015122088,0.011175306,0.030260045,0.021493223,0.0071194144,-0.0025713814,0.0012448654060905077,-0.0076603603028551175,-0.01553192256967584,-0.00012498035,-0.0006444285,-0.00041360513,15.3,-1.0,0.5000267,0.7286753,0.7284959,0.72864836,0.7286878
36.9,5.5102715,0.2405028,-18.490667,-0.012990358,0.01115973,0.029327026,0.018328039,-0.005567638,-0.006696209,0.0012031092129105943,-0.007728105733626703,-0.015565321849529313,-0.0012496768,-0.0008315667,-0.001217321,15.3,-1.0,0.5000267,0.7286848,0.7289479,0.729016,0.7285339
37.0,5.508676,0.24076027,-18.488573,-0.01035968,0.010936017,0.028111998,0.01779458,0.00043456565,-0.005249865,0.0010971359193621055,-0.007768993748112246,-0.015599521829650664,-0.0014606651,-0.00022108515,-0.00039305314,15.3,-1.0,0.5000267,0.72878474,0.72911865,0.7290252,0.72870606
37.1,5.50729,0.24071886,-18.486227,-0.007577497,0.010273074,0.027017616,0.02234269,-0.010877371,-0.011097639,0.0010539495353222164,-0.007741288441526809,-0.015615164998625435,-0.00028526466,0.0012890145,0.00025753025,15.3,-1.0,0.5000267,0.728974,0.72934306,0.72908866,0.7291244
37.2,5.5063705,0.24009025,-18.48454,-0.0053055454,0.009292905,0.025512077,0.017438633,-0.0064262236,-0.0132620325,0.0010415125667668206,-0.0076663932352437625,-0.015604366094181003,0.00033044745,0.0006345394,3.427003e-05,15.3,-1.0,0.5000267,0.72896117,0.7292039,0.7292812,0.72892535
37.300000000000004,5.5052357,0.23904589,-18.483385,-0.0036223182,0.00807803,0.023852188,0.015302475,-0.0065873717,-0.011220573,0.0011682828021465298,-0.007527959885257512,-0.015635029382222165,0.0011433418,0.00015232169,-0.00012869235,15.3,-1.0,0.5000267,0.7288532,0.72892785,0.72931063,0.7283379
37.4,5.504179,0.23804721,-18.482956,-0.0022223485,0.007238027,0.022812026,0.024935218,0.0018043083,0.000745058,0.0014019967184122435,-0.007412483652062254,-0.015673489464543184,0.0030109263,0.0003139181,0.00041732917,15.3,-1.0,0.5000267,0.7286393,0.72856003,0.7284614,0.72843254
37.5,5.5036187,0.23709506,-18.482817,-0.00091583363,0.006673059,0.022108754,0.02021014,0.003146685,-5.960464e-05,0.0016845286783109582,-0.007393678248346766,-0.01567911519420988,0.0023217127,-0.00042723183,-0.00033922968,15.3,-1.0,0.5000267,0.72821546,0.72834694,0.72848386,0.7278659
37.6,5.504112,0.23627056,-18.482664,0.0010642852,0.006638525,0.02188444,0.015973752,0.006643527,-0.00010663643,0.001956008823887185,-0.007398463967989535,-0.015685847336530077,0.003031855,0.00017359646,0.0001353668,15.3,-1.0,0.5000267,0.7284342,0.7278099,0.72790587,0.72808933
37.7,5.5052514,0.23614657,-18.48255,0.0035516769,0.007461185,0.021818008,0.019726446,0.01056376,0.0010686925,0.0021525557930750666,-0.007223671823730249,-0.015667906832444425,0.0005559403,0.0031945491,0.0005158344,15.3,-1.0,0.5000267,0.72769433,0.7282663,0.7279779,0.7278726
37.800000000000004,5.5058517,0.2365582,-18.482546,0.005061316,0.00852431,0.022285186,0.015960716,0.00427702,0.015179626,0.002214652340390982,-0.006905532736839417,-0.01561972170549918,-0.0001500025,0.0035693382,0.0002679243,15.3,-1.0,0.5000267,0.7281069,0.727714,0.7278294,0.7280907
37.9,5.505767,0.2369806,-18.482609,0.0055068615,0.009600652,0.022598833,0.013078524,0.0045941127,0.013372394,0.002120536091083209,-0.0065396318935330155,-0.015590333889808064,-0.0013895022,0.002923811,0.00068987295,15.3,-1.0,0.5000267,0.7279132,0.72779506,0.72769314,0.7281448
38.0,5.5049605,0.23743288,-18.482725,0.005522114,0.0099972235,0.023131905,0.0097097065,0.006646578,0.006787944,0.0019234546156825338,-0.006293440381255752,-0.01556571714325155,-0.0026305066,0.0014567428,-0.000108687986,15.3,-1.0,0.5000267,0.7275945,0.72808826,0.7280067,0.72783935
38.1,5.503939,0.23741281,-18.482944,0.0052093854,0.009887533,0.023588426,0.0073280167,0.0031599763,0.009876209,0.001772991997217523,-0.006241309778897357,-0.015539801255350797,-0.00060224335,-0.0007052071,0.0006548368,15.3,-1.0,0.5000267,0.7279069,0.7276519,0.7278016,0.7280025
38.2,5.5033965,0.23652817,-18.48293,0.0049027945,0.0088661155,0.02429004,0.010219531,0.00296842,0.01742551,0.0016710109743409472,-0.006369927483948146,-0.015536932994401353,0.00068981585,-0.0021045562,-7.689405e-05,15.3,-1.0,0.5000267,0.7278708,0.7278917,0.72800565,0.727975
38.300000000000004,5.503018,0.23477136,-18.482344,0.0049320427,0.0072273063,0.024556583,0.0062856213,0.004743165,0.0029341315,0.0017741601410322173,-0.006515110990447273,-0.015565960095942634,0.001863961,-0.0006013814,0.0003544906,15.3,-1.0,0.5000267,0.7276213,0.7285358,0.7279126,0.7282781
38.400000000000006,5.502813,0.23323579,-18.48185,0.0053166873,0.005946116,0.02457882,0.012291844,0.009106427,0.0059031877,0.0021015126522355133,-0.00663951115246156,-0.01555652756635459,0.0055055656,-0.0014674809,0.00051154755,15.3,-1.0,0.5000267,0.72843057,0.72776455,0.7282115,0.7282094
38.5,5.5027018,0.23221353,-18.481752,0.005973966,0.0056140646,0.024564456,0.012960999,0.013334121,0.0097164875,0.002531863102974257,-0.0067226763178355586,-0.01558796256343386,0.004026102,-0.0014871103,-1.9980409e-05,15.3,-1.0,0.5000267,0.7281983,0.72801673,0.7284282,0.7277406
38.6,5.5022583,0.23149249,-18.481888,0.00675101,0.005963706,0.024371961,0.02162903,0.015255567,0.009466893,0.0028788232989721456,-0.006710257491173078,-0.015579786180422162,0.0038075978,-0.00052506005,-0.00019478252,15.3,-1.0,0.5000267,0.72828597,0.7275172,0.7278503,0.727975
38.7,5.5012145,0.23105374,-18.482605,0.006786374,0.006720263,0.024697421,0.011522864,0.015261876,0.0196225,0.0031326076136959677,-0.006644973503623958,-0.015603456458554781,0.0015090464,9.612507e-05,0.0005439727,15.3,-1.0,0.5000267,0.727627,0.72787446,0.7277494,0.72755176
38.800000000000004,5.4992595,0.23160444,-18.483404,0.0061179195,0.008254767,0.025363185,0.015919983,0.013695948,0.018266028,0.0032407797375127974,-0.006690468257384212,-0.015597086405943178,0.0018392324,-0.0020308911,-0.00023586997,15.3,-1.0,0.5000267,0.7278915,0.7272957,0.7271349,0.7279324
38.900000000000006,5.4966044,0.23295462,-18.484007,0.0049528126,0.010415312,0.026272494,0.010147961,0.01701029,0.02009142,0.0031675976201269267,-0.006897438092870746,-0.015575568819407444,-0.00086728006,-0.0033279846,0.00020795611,15.3,-1.0,0.5000267,0.7276185,0.7275035,0.7270946,0.7279895
39.0,5.4941874,0.2345783,-18.484697,0.0043647494,0.012230797,0.027053637,0.017555356,0.0140326265,0.010684132,0.0028598974069847433,-0.007349265431940164,-0.0155388036508104,-0.004355595,-0.0060313893,-0.00026458816,15.3,-1.0,0.5000267,0.727337,0.72763395,0.72767377,0.7273537
39.1,5.4918904,0.23629281,-18.485706,0.0040244265,0.013629446,0.027922079,0.02463851,0.009375896,0.014000106,0.0024325031953113894,-0.007881786393304712,-0.015528203317015139,-0.005000546,-0.0054473197,-0.00038548018,15.3,-1.0,0.5000267,0.7270764,0.72767305,0.72726816,0.72751206
39.2,5.490129,0.23773229,-18.486471,0.004651882,0.014135052,0.029002111,0.024678934,0.0024757062,0.020980833,0.0019693578129674123,-0.008379394021570865,-0.015507038286516742,-0.0043442124,-0.0051730997,0.0005696752,15.3,-1.0,0.5000267,0.7274875,0.727182,0.7274852,0.72731566
39.300000000000004,5.4891114,0.23919535,-18.487154,0.0063288463,0.014133616,0.03008481,0.03375791,4.507501e-05,0.019834375,0.0015768984490474502,-0.008777740213816578,-0.015536405086494186,-0.003851047,-0.002386487,-0.00026119553,15.3,-1.0,0.5000267,0.72708,0.72774005,0.72749764,0.727258
39.400000000000006,5.489396,0.24043453,-18.487675,0.009119913,0.013958692,0.031106656,0.030619498,-0.0026563792,0.018262303,0.00125580155662807,-0.008997208364425333,-0.015549885054091297,-0.0026849525,-0.0006647596,-0.0013589873,15.3,-1.0,0.5000267,0.727488,0.72742647,0.72750753,0.7274167
39.5,5.490722,0.24131991,-18.487663,0.012453393,0.013154073,0.032245655,0.028879032,-0.0041620247,0.024064908,0.0010022789123111735,-0.008898796584405311,-0.015562248100085068,-0.0030351728,0.002313572,-0.0005907344,15.3,-1.0,0.5000267,0.72742623,0.72797257,0.72821105,0.72730625
39.6,5.492884,0.24233101,-18.48758,0.01597692,0.012232555,0.03264639,0.031816028,-0.009006556,0.013576354,0.0008881924864491595,-0.008484074528208563,-0.015626671393883653,-0.0007852441,0.004988103,-0.000386045,15.3,-1.0,0.5000267,0.72801816,0.72774434,0.7279536,0.7275283
39.7,5.495632,0.24348058,-18.488039,0.019152002,0.011586075,0.032716587,0.027337363,-0.010523647,0.014426651,0.0007858215854445474,-0.007870657670155806,-0.015654391267452338,-0.0007078056,0.007574213,3.1861608e-05,15.3,-1.0,0.5000267,0.72754055,0.72790176,0.72742945,0.72772056
39.800000000000004,5.4981656,0.24464871,-18.489012,0.021610536,0.01123136,0.03308322,0.019440265,-0.004200621,0.024490057,0.000693148625737271,-0.007119741393971369,-0.015660512310034094,-0.0013358311,0.008601214,-0.0004043007,15.3,-1.0,0.5000267,0.7273335,0.7275161,0.72735536,0.72736263
39.900000000000006,5.500457,0.24564394,-18.48977,0.022835683,0.01014696,0.034178983,0.00025400365,-0.007827476,0.027501954,0.0005783481429836564,-0.006283807376927922,-0.01567732245902089,-0.0015071068,0.0078064078,-0.00033214566,15.3,-1.0,0.5000267,0.7272919,0.7275352,0.72753704,0.72719777
40.0,5.5029044,0.24645124,-18.489725,0.023646217,0.009274601,0.03489915,-0.0045540887,-0.007845259,0.0106100915,0.0004748344434104834,-0.00561717788758832,-0.015680791771678474,-0.00082785997,0.0055725714,0.0010936811,15.3,-1.0,0.5000267,0.7275814,0.72761476,0.7278001,0.7273651
40.1,5.506067,0.24815509,-18.488855,0.02460413,0.008775393,0.035645694,-0.003380435,-0.008615217,0.010140705,0.0004479576811223179,-0.005022868772158256,-0.015666977885540494,-0.0006919034,0.006313783,0.00016435876,15.3,-1.0,0.5000267,0.7280035,0.7279856,0.7281125,0.72785515
40.2,5.5091143,0.2503733,-18.487171,0.024955483,0.008806111,0.035854716,-0.0059607388,-0.009204972,0.0027348285,0.00033111874979971156,-0.004432931167704839,-0.01564259684463632,-0.0013838502,0.005837536,-3.7109712e-06,15.3,-1.0,0.5000267,0.7288357,0.728318,0.7284649,0.7286683
40.300000000000004,5.512484,0.25273734,-18.484804,0.024333736,0.008202563,0.03486489,-0.021643575,-0.013918361,-0.0067050564,9.915319757610202e-05,-0.003807921697624872,-0.015609232227742869,-0.0022707193,0.0054863873,0.00010707397,15.3,-1.0,0.5000267,0.7292546,0.72864914,0.7289407,0.7289897
40.400000000000006,5.5153747,0.2546445,-18.482271,0.023006663,0.0074147987,0.03348802,-0.026711743,-0.02005249,-0.023472121,-0.00021114561123853105,-0.003272543389944255,-0.015547929998583336,-0.0027075391,0.004766493,0.0002516791,15.3,-1.0,0.5000267,0.7293301,0.7292684,0.7293443,0.72951263
40.5,5.518231,0.25647414,-18.479631,0.021121582,0.0063768034,0.031189013,-0.028574575,-0.013117337,-0.026207415,-0.00047651639133155263,-0.0028613697632567277,-0.015516344006969959,-0.0021377564,0.0031277658,0.00051836827,15.3,-1.0,0.5000267,0.72966486,0.7292221,0.72960156,0.7295336
40.6,5.5210133,0.2581753,-18.476812,0.01867333,0.0048221564,0.028339634,-0.035766754,-0.022465367,-0.020049045,-0.000681505917905567,-0.0025450263682416934,-0.015519803696957149,-0.001617146,0.0034791008,-0.0003574823,15.3,-1.0,0.5000267,0.7293807,0.7296791,0.72943527,0.72967035
40.7,5.523035,0.25922745,-18.473894,0.015249834,0.002893712,0.025616577,-0.033636674,-0.025059462,-0.020018311,-0.0008384758631014793,-0.002331185270884053,-0.015516554947078593,-0.001672296,0.0007160128,-0.00047208607,15.3,-1.0,0.5000267,0.7294809,0.72974855,0.72986954,0.7294124
40.800000000000004,5.5244346,0.25992095,-18.47143,0.0118951155,0.0008896757,0.022828374,-0.037857417,-0.021279808,-0.021134501,-0.0008771587806163103,-0.0022791888906895075,-0.015480502747455016,0.0003886789,-0.00033343863,-1.9645136e-05,15.3,-1.0,0.5000267,0.7295259,0.7295133,0.7295584,0.72978073
40.900000000000006,5.525439,0.26048642,-18.469076,0.008377069,-0.00088055455,0.020128148,-0.025439475,-0.026622998,-0.025718005,-0.0007939989217975379,-0.002403532273523374,-0.015488253508814671,0.0008011011,-0.0017782011,-0.0008483165,15.3,-1.0,0.5000267,0.7294898,0.7295369,0.7294295,0.7297219
41.0,5.525779,0.2609716,-18.467312,0.004952745,-0.0025092645,0.01759765,-0.030558664,-0.022673234,-0.019405967,-0.0006900490267259217,-0.0026150084939218017,-0.015488808857302505,0.00086169346,-0.00342965,-7.5180345e-05,15.3,-1.0,0.5000267,0.72934294,0.7292955,0.72949904,0.7292126
41.1,5.5253105,0.26104635,-18.465841,0.0012918896,-0.0044191335,0.015243654,-0.025142971,-0.015903609,-0.013684387,-0.0005490524264559211,-0.00294305961958498,-0.015470063671763635,0.0019892338,-0.00401289,0.00025456032,15.3,-1.0,0.5000267,0.72898626,0.72912717,0.7290645,0.729238
41.2,5.5242004,0.26046994,-18.464703,-0.0019240153,-0.0065236227,0.013708481,-0.026914503,-0.017268306,-0.006002839,-0.0003687227526343152,-0.003378898069257699,-0.015508737678015654,0.0014881069,-0.005258977,-0.0009510856,15.3,-1.0,0.5000267,0.72886735,0.7291655,0.72927606,0.7286576
41.300000000000004,5.5222793,0.25973767,-18.46391,-0.0047973776,-0.008355633,0.012318965,-0.012016289,-0.010675114,-0.009508337,-4.170027996019331e-05,-0.003962580616920243,-0.01553391172406669,0.0036510224,-0.0068433424,-0.00034074608,15.3,-1.0,0.5000267,0.7289431,0.72881484,0.72889924,0.72866535
41.400000000000006,5.5197334,0.25870323,-18.463186,-0.00705335,-0.009825132,0.011351235,-0.0065136733,-0.009160452,-0.0052410173,0.0002652303882212425,-0.004551329593369022,-0.015539199495507862,0.0034372301,-0.00765683,-0.00026691426,15.3,-1.0,0.5000267,0.72884274,0.72868025,0.72899806,0.72845244
41.5,5.516929,0.2570076,-18.462227,-0.008706334,-0.011636294,0.010387021,-0.003284105,-0.00483147,-0.013469252,0.0006334760382556282,-0.005216006142697695,-0.015545834897206885,0.004148443,-0.006898335,-0.00082794006,15.3,-1.0,0.5000267,0.7285831,0.72893846,0.72877645,0.7286657
41.6,5.5137877,0.2545593,-18.461493,-0.009781997,-0.013080266,0.009550434,-0.0007810758,-0.00077216735,-0.013631768,0.0010942295811723175,-0.005916760041548508,-0.015533713415776551,0.0051911757,-0.006533772,0.00076465623,15.3,-1.0,0.5000267,0.72849953,0.7288476,0.7286,0.72888446
41.7,5.5109224,0.2518033,-18.46097,-0.009781837,-0.013860885,0.008752259,0.01260103,0.0030387049,-0.007259659,0.0016200558938426863,-0.006586512793825683,-0.015527299851895403,0.0059805973,-0.00622196,0.00012421835,15.3,-1.0,0.5000267,0.7286744,0.72851396,0.7285559,0.7287903
