time_sec,x,y,z,vx,vy,vz,ax,ay,az,roll,pitch,yaw,angular_x,angular_y,angular_z,voltage_v,current_a,remaining,motor_1,motor_2,motor_3,motor_4
0.0,0.060191292,-0.028016724,-0.06640756,-0.0051667984,-0.015532097,-0.000332172,0.0005594821,0.0052058566,0.002485234,6.514167308937289e-05,0.00042634523720545543,1.6704971484995768,0.00083047245,0.0009773485,-0.00097499683,16.2,-1.0,0.9999466,0.00089824566,0.0011703759,0.00045888996,0.0014724882
0.1,0.058643837,-0.03107823,-0.06623261,-0.0058119716,-0.017388655,0.00015660207,-0.0035993988,-0.0055170115,-0.0061909663,5.115878115017678e-05,0.0004906817543521389,1.6704850714195467,-0.0005887528,-9.876938e-05,0.0010818872,16.2,-1.0,0.9999466,0.0008274843,0.0012190216,0.0008699438,0.00108355
0.2,0.057350453,-0.033360045,-0.0660893,-0.0063859955,-0.018697454,0.00067577773,-0.005508749,-0.0012565708,0.0003748573,7.201650344651101e-05,0.000503381052569433,1.6704649702648902,-0.00025621644,-0.0002452569,1.7923776e-06,16.19424,-1.0,0.9996586,0.0006843623,0.0014077799,0.0007643521,0.0011435054
0.30000000000000004,0.056191508,-0.035286717,-0.06533414,-0.0071204,-0.019600129,0.0012067668,-0.0018934202,-0.0089287525,0.00024028121,7.524749268190849e-05,0.00051097245532469,1.6704829757079414,0.00050139043,-0.00036662808,-0.000224903,16.188242,-1.0,0.9988203,0.0009283269,0.0010818043,0.00075018127,0.0012396872
0.4,0.055488415,-0.036100242,-0.06431854,-0.007116155,-0.019636542,0.0014088656,0.0067396793,-0.0051155295,-0.0050109806,5.198238610826337e-05,0.0005122678897512622,1.6704710395246405,-0.00021826055,8.907805e-05,2.0059182e-05,16.188242,-1.0,0.9988203,0.0007561218,0.0013172087,0.0007603165,0.0011663527
0.5,0.055458914,-0.03575893,-0.06337425,-0.0065966765,-0.01874193,0.001818392,0.0011179651,-0.012033177,-0.0009667128,1.776065372535774e-05,0.0004472052903154388,1.670508326572305,-0.0005337636,-0.000177907,0.00034062602,16.188242,-1.0,0.9988203,0.000665613,0.0012860287,0.0009085825,0.0011397756
0.6000000000000001,0.056041002,-0.03471318,-0.061778024,-0.006062114,-0.017242195,0.0024282187,-0.0045055095,-0.007312461,-0.008843838,-3.0572550094490584e-06,0.00037376904232754444,1.6705017111360632,-0.00033090188,-0.00026386714,0.00020100495,16.182241,-1.0,0.9975319,0.00080093794,0.0012254445,0.0011005406,0.0008730766
0.7000000000000001,0.05636293,-0.03342756,-0.060107917,-0.005916177,-0.015240135,0.0027867337,-0.0037584407,-0.007817585,-0.0014333053,-2.9161115683710286e-05,0.0003308883525261651,1.6704823657419203,0.00065392803,0.0004348023,0.00010323811,16.176243,-1.0,0.9958725,0.0009426816,0.0011089211,0.0006362337,0.0013121633
0.8,0.056612227,-0.03228965,-0.05853483,-0.005672221,-0.013787985,0.003429654,0.004223797,-0.0014229558,0.0034617258,-6.554261062840288e-05,0.0002557032174945168,1.670481271342714,0.0007853791,0.000556893,-0.00019325387,16.176243,-1.0,0.9958725,0.00090537954,0.0010757903,0.000521666,0.0014971639
0.9,0.056743864,-0.031279616,-0.057206556,-0.0057104584,-0.012513434,0.00386717,-0.0016233936,-0.0047205617,0.0005885958,-5.580828421971068e-05,0.00020024844051207133,1.6704480442615617,0.00013605655,-0.0002469534,-0.00046481637,16.176243,-1.0,0.9958725,0.0010299719,0.0010208612,0.0008607599,0.0010884068
1.0,0.056673553,-0.030381909,-0.05633557,-0.005885393,-0.011701872,0.00423757,-0.0042239255,-0.0065035084,0.003189314,-4.66338187346336e-05,0.0001984576659139375,1.670434487315079,-0.00030846935,0.00034180423,6.0917228e-06,16.170242,-1.0,0.9939146,0.00080320734,0.0012036798,0.0009223675,0.001070745
1.1,0.05639803,-0.02952087,-0.05615963,-0.006149368,-0.010661859,0.004303799,-0.0019360713,0.0019634906,0.0013625248,-9.478945438822367e-06,0.00016643699838323747,1.6704151042334416,0.0007935361,-0.0005655155,-0.00022370878,16.164244,-1.0,0.99171066,0.023312362,0.022877375,0.02291118,0.023225002
1.2000000000000002,0.055941053,-0.028642926,-0.056464612,-0.0065201204,-0.009347889,0.004273066,-0.003641967,-0.0010002172,0.0042109746,-3.131949735526213e-05,0.0001532427238363562,1.6703904794211548,-0.0006286967,-0.0013159573,-0.00031115967,16.164244,-1.0,0.99171066,0.041633442,0.041482285,0.041904125,0.0410258
1.3,0.055987906,-0.02798925,-0.056720287,-0.006434123,-0.008620616,0.0043546557,0.0028128768,-0.003611121,0.0015832483,-4.59074333157662e-05,0.00013457221688878586,1.6704016910268304,0.00054245204,-7.326009e-05,-0.00016173322,16.158243,-1.0,0.9892998,0.060608942,0.060815845,0.060347218,0.060967896
1.4000000000000001,0.05634108,-0.027199093,-0.057172358,-0.005771766,-0.007866601,0.0041626766,0.0039803153,-0.0047199903,0.0048396173,-6.039984859285875e-05,0.00011548361024497251,1.6704493815036219,0.00034157283,-0.0011377604,0.0009016712,16.158243,-1.0,0.9892998,0.08396278,0.08336216,0.083852306,0.08362439
1.5,0.056673877,-0.026592683,-0.057090104,-0.0052353805,-0.0069124047,0.004272201,0.0037764614,-0.0015901222,-0.0056158747,-9.364411628651564e-05,0.00010742179349885994,1.6704727467315212,0.00024256369,0.00054329576,-0.00043898035,16.158243,-1.0,0.9892998,0.10697296,0.10724859,0.10701951,0.10735672
1.6,0.056892734,-0.025993213,-0.056565166,-0.0045287064,-0.0059438553,0.004489648,0.0009870841,-0.006887515,-0.0042053866,-0.0001270890856816893,6.768721875174562e-05,1.6704669568722281,1.4309431e-05,-0.00037427482,-3.846021e-05,16.152245,-1.0,0.98672295,0.1348244,0.13496336,0.13500158,0.13477568
1.7000000000000002,0.05722262,-0.02577906,-0.05609472,-0.0038653067,-0.0053194095,0.004578865,0.0034424823,-0.0019190289,0.0029406508,-0.00012591814681961922,6.109068205806203e-05,1.6704568314145638,0.00012487706,-0.00032447456,0.0002018142,16.146244,-1.0,0.98400784,0.16269317,0.16257209,0.16259114,0.16256206
1.8,0.05777329,-0.025833437,-0.05596298,-0.0033438988,-0.005086314,0.004454987,0.0053270045,-0.00011784777,-0.001465436,-0.00017251671500910252,7.582150164156648e-05,1.6704830614721256,-4.727654e-05,0.00025833756,1.6552895e-05,16.146244,-1.0,0.98400784,0.19481176,0.19492137,0.19490139,0.1949416
1.9000000000000001,0.058112517,-0.026508424,-0.05593708,-0.0030335495,-0.0055304263,0.0042560166,-7.058065e-05,4.6570618e-05,0.00017369165,-0.00014005699842938098,6.741636877901532e-05,1.6705057033522817,0.00038983126,-0.00020652327,-0.0007360052,16.140245,-1.0,0.981184,0.22662216,0.22690415,0.226777,0.22693373
2.0,0.058245007,-0.027586974,-0.056071892,-0.0032403555,-0.006170563,0.003919396,-0.0047876206,0.0008829693,0.0062007452,-0.00013381591280579633,0.00013791964639165872,1.6705183986131638,8.683302e-05,0.00044244787,0.00012560766,16.140245,-1.0,0.981184,0.2634453,0.2637929,0.2633511,0.26405218
2.1,0.05823081,-0.028891856,-0.05647379,-0.0036210762,-0.007057287,0.003835127,0.00049319613,0.0075567933,-0.006540678,-0.00011852064964616501,0.00016630761917844452,1.6704908030065249,0.0001971089,-0.0006909751,-0.0013077346,16.140245,-1.0,0.981184,0.29994115,0.29986057,0.2996513,0.30001298
2.2,0.058082834,-0.030519197,-0.057954565,-0.0042167148,-0.0083146375,0.0034494852,-0.007305804,0.0064433487,-0.006326008,-9.256554874869907e-05,0.00021433019683831219,1.6704722062969424,1.8353307e-05,-0.00025016058,-0.00056662585,16.134245,-1.0,0.97826576,0.34121257,0.34153074,0.34106532,0.3415012
2.3000000000000003,0.058091186,-0.03244609,-0.060102448,-0.0045265215,-0.009793131,0.0027277027,-0.0003995785,-0.0035686847,-0.004507135,-6.361395809517571e-05,0.00026756974292480685,1.6704717385443661,-1.019029e-05,0.000956667,-0.00041742704,16.128246,-1.0,0.97527313,0.381193,0.38215223,0.3808368,0.38245073
2.4000000000000004,0.05814345,-0.034620203,-0.06224668,-0.0040491438,-0.011280978,0.002309879,0.00084110495,-0.00840656,0.00026868653,-4.636761830651253e-05,0.00029145453188531565,1.6704529685394631,-0.0012883097,-0.00022813307,3.8975766e-05,16.128246,-1.0,0.97527313,0.3958486,0.39740792,0.3963417,0.39676413
2.5,0.057617348,-0.03659779,-0.06432472,-0.004280298,-0.012508359,0.0018797024,-0.003517569,0.0035738018,0.0013797543,-2.6930851160720456e-05,0.00031124065239315123,1.6704731270377469,0.0008479691,0.0002972903,0.0001628189,16.128246,-1.0,0.97527313,0.40590066,0.40650666,0.40522888,0.40727416
2.6,0.056648772,-0.03847649,-0.06653264,-0.004636699,-0.013569802,0.0015866295,-0.0058075874,-0.0035621852,-0.0060116868,-4.4114441561366164e-05,0.0003317802914962407,1.6704532559354142,0.0004194268,-0.00047819107,0.0007110392,16.122246,-1.0,0.97221947,0.42160338,0.42177892,0.4207586,0.4224928
2.7,0.05601379,-0.040010702,-0.06917639,-0.0047373287,-0.013801068,0.0011566329,-0.00061312935,0.002178425,-0.0040223817,-7.233606118438867e-05,0.00033446800033827133,1.6704753270290238,-0.000115700605,-0.0004981415,-0.00028466753,16.116247,-1.0,0.9691143,0.43200186,0.4328607,0.43197846,0.43295646
2.8000000000000003,0.055377927,-0.041265715,-0.07221557,-0.00471518,-0.014197353,0.00039846927,0.0017172053,0.0012270781,0.0029369255,-7.652943746982832e-05,0.0003482722561389665,1.6704564039265473,-0.00044864014,0.00047979678,9.885742e-06,16.116247,-1.0,0.9691143,0.4483774,0.44986078,0.4482867,0.449817
2.9000000000000004,0.05504895,-0.04161699,-0.07501967,-0.004574472,-0.013963529,-1.8557785e-05,-0.0028890474,-0.0028201996,0.005135778,-9.025376268608969e-05,0.00033745920624379946,1.6704270398154788,0.00017032369,-0.00014866739,-0.0002165151,16.110247,-1.0,0.96596813,0.4606751,0.46162072,0.46022272,0.4618039
3.0,0.05457168,-0.041552737,-0.077301666,-0.004501023,-0.013503554,-0.00070887303,0.0014728793,-0.0022121824,-8.4284686e-05,-7.569206432628312e-05,0.000309249931444475,1.670447001552833,0.0004849849,0.00020640423,0.00060570706,16.110247,-1.0,0.96596813,0.47844794,0.47954854,0.47817415,0.47982246
3.1,0.05330602,-0.041480843,-0.079459414,-0.0051017525,-0.012782662,-0.0012632085,0.0033194667,0.0022535163,-0.000430271,-4.7367501689056755e-05,0.0002641526431982674,1.6704221071311944,0.0002905486,0.0011928158,-0.00072495174,16.110247,-1.0,0.96596813,0.49163616,0.49273866,0.49098143,0.49324974
3.2,0.051404975,-0.04168654,-0.081460685,-0.006236772,-0.012477918,-0.0019626103,0.0038943356,-0.0072313906,-0.004963949,-1.458759792330691e-05,0.00021752625235174256,1.6704145079633088,3.964464e-05,0.00044181885,0.0003829243,16.104248,-1.0,0.96278954,0.51085424,0.51191473,0.51008886,0.51249987
3.3000000000000003,0.04913844,-0.041648183,-0.08283809,-0.007693026,-0.012239477,-0.0023092537,0.0012614259,-0.0045330063,0.0016470439,1.9510581093277024e-05,0.0002286212633296587,1.6704198855343302,-0.0002537881,-0.0002082428,7.824993e-05,16.098248,-1.0,0.9595823,0.5253751,0.5261847,0.52480197,0.5267216
3.4000000000000004,0.046884265,-0.04031117,-0.083759755,-0.008957036,-0.010933111,-0.0024950237,0.0060227485,-0.00854653,-0.0009834765,9.458833902085838e-05,0.00017285144901034338,1.6704014104167175,-8.898549e-06,0.00046855723,-2.3691859e-05,16.098248,-1.0,0.9595823,0.54597247,0.54680073,0.5450364,0.5475115
3.5,0.045240488,-0.037491843,-0.08469665,-0.009666643,-0.008361821,-0.0024388179,-0.0038871379,0.0037072466,-0.0024451872,9.423715867318195e-05,9.499175763565971e-05,1.670427795684896,-0.0009406423,0.00025954208,0.0005755818,16.098248,-1.0,0.9595823,0.56174743,0.5623542,0.561326,0.56279826
3.6,0.04400537,-0.03319019,-0.085822105,-0.009956511,-0.004669686,-0.0025674913,-0.003623676,-0.0018405173,0.0028801148,5.569995465504848e-05,-1.6314585088143374e-05,1.6704119645511908,-0.00058890873,0.0008444925,-0.00056394504,16.092249,-1.0,0.95635223,0.5838706,0.58407015,0.58309317,0.5846578
3.7,0.043707967,-0.028632924,-0.0867303,-0.0095958,-0.00093016215,-0.00302154,-0.0013069193,0.0069206045,-0.0019595025,1.4537887759127298e-05,-0.00018142033457523645,1.6704119769878591,-9.999885e-05,0.00014340787,0.0002597983,16.086248,-1.0,0.953105,0.60100275,0.60054415,0.6000585,0.60129195
3.8000000000000003,0.044304643,-0.02367511,-0.087255865,-0.0088013625,0.003004596,-0.0028685103,-0.009217722,-0.00048700324,0.008853617,-6.890048323982887e-05,-0.0002707615553710795,1.6703966566482216,-0.0010234565,-0.00029229952,-0.0010289217,16.086248,-1.0,0.953105,0.6243309,0.623659,0.6240566,0.6237309
3.9000000000000004,0.044983547,-0.01915014,-0.087385446,-0.007980269,0.006362224,-0.0028283254,-0.0025426582,0.0032771584,-0.003578141,-0.00014762075301105816,-0.00034760145281006376,1.6703796911759523,-0.00070203334,-3.2243577e-05,-0.0002794851,16.08025,-1.0,0.94984055,0.6426372,0.6416977,0.6421389,0.641934
4.0,0.04598045,-0.015624246,-0.08690469,-0.0068401117,0.008669059,-0.0025928128,-7.086112e-05,-0.00075932936,-0.0025220213,-0.00022483785717072928,-0.00038688636161476837,1.6703817008840147,-0.00022010467,-0.0004917695,0.00022637295,16.08025,-1.0,0.94984055,0.6673885,0.665893,0.6669367,0.6661987
4.1000000000000005,0.04710952,-0.012941868,-0.0861458,-0.0059242644,0.010246233,-0.0023654746,0.002894005,0.0009572722,-0.0064051705,-0.00024247752580410198,-0.0004081954565551335,1.6703650207541216,0.0005887879,-0.00063085306,-0.0003692795,16.07425,-1.0,0.94656277,0.7177733,0.7155987,0.71721905,0.71593505
4.2,0.04766433,-0.011791,-0.085133806,-0.005585516,0.010234223,-0.005023661,-0.0023166651,0.0022937919,-0.15412131,-0.00028523213297180014,-0.00020849111316722239,1.6703386864789522,-0.001173364,0.0065618576,-0.00065352966,16.07425,-1.0,0.94656277,0.74135166,0.742251,0.7413689,0.74182034
4.3,0.04758142,-0.011324791,-0.08577889,-0.0055826018,0.0094976295,-0.03994247,0.00085123547,-0.0042567276,-0.5293237,-0.00027386578714449654,0.0003396869935146627,1.6703477434971419,0.00056956126,0.003993595,0.00043779376,16.07425,-1.0,0.94656277,0.75372785,0.7531851,0.7531984,0.7535393
4.4,0.046408474,-0.011161206,-0.09249565,-0.006232572,0.008118518,-0.10660303,-0.0043410244,-0.0037491315,-0.7253452,-0.00023342504003109432,0.0006930019960592565,1.6703749160771701,-0.0003196926,0.0018644396,0.0005734911,16.06825,-1.0,0.94327736,0.763481,0.7633792,0.76317465,0.76353514
4.5,0.044619326,-0.011495159,-0.106946975,-0.007230241,0.0063236905,-0.18295012,0.0023355887,-0.0121856285,-0.8450839,-0.0002501723019079563,0.0008330362636627885,1.6704222001146884,-0.0015633577,-0.00029475917,-0.00038322574,16.06825,-1.0,0.94327736,0.76418304,0.76399696,0.7640465,0.764082
4.6000000000000005,0.042040735,-0.011661393,-0.13232827,-0.009027204,0.0049087964,-0.27320516,0.0035352763,-0.0037198951,-0.8686105,-0.0004550996886825035,0.0008411006762803922,1.670502179982054,-0.004260127,0.00022972356,-0.0001305769,16.06225,-1.0,0.93998337,0.76802504,0.7683575,0.7681915,0.7683343
4.7,0.039109424,-0.010566915,-0.16848016,-0.010609803,0.004588405,-0.36674604,0.008032662,-0.0033047486,-0.89096737,-0.0008379645739424917,0.000786129065292046,1.6705223396576594,-0.005089238,0.00065401616,-0.0008238691,16.056252,-1.0,0.936677,0.76503617,0.76482266,0.7647776,0.764865
4.800000000000001,0.036462847,-0.008806428,-0.21069282,-0.011365667,0.0049923644,-0.4526012,0.01715817,-0.010639448,-0.86712736,-0.001394385167534039,0.0008700738661922806,1.6705466711000003,-0.0066716024,0.0024616502,-0.00052008405,16.056252,-1.0,0.936677,0.7683301,0.7680285,0.7681814,0.76789993
4.9,0.033788826,-0.0071839043,-0.26547518,-0.011115731,0.0049341074,-0.54460424,0.024149956,-0.004601897,-0.8657821,-0.0020268018827259656,0.001235472470907633,1.6705934864510932,-0.0073149456,0.0051423307,0.0007015733,16.050251,-1.0,0.9333706,0.7635226,0.76344824,0.76347864,0.7634624
5.0,0.03144137,-0.006320349,-0.32442966,-0.010224631,0.004034813,-0.6281651,0.03452635,-0.0186557,-0.84257495,-0.0027605702921421173,0.001801900761470648,1.6706254587846263,-0.008585598,0.006548931,5.105001e-06,16.050251,-1.0,0.9333706,0.7670967,0.76692957,0.7670449,0.7671318
5.1000000000000005,0.029874284,-0.006204481,-0.39781967,-0.007694733,0.0019147608,-0.7175094,0.04317001,-0.02574193,-0.82852036,-0.0037311139034957243,0.002473970691735135,1.6706464283674967,-0.012721826,0.0065552094,0.0010704737,16.044252,-1.0,0.9300604,0.76156485,0.76119554,0.7617949,0.76119006
5.2,0.029648304,-0.0065654623,-0.4738703,-0.003386187,-0.0008097641,-0.7885706,0.05328994,-0.028439721,-0.51456594,-0.005388574884499513,0.003398752167574471,1.6706348617818478,-0.020709004,0.009468658,0.0002767061,16.044252,-1.0,0.9300604,0.7405393,0.740345,0.7407038,0.7403095
5.300000000000001,0.030793838,-0.007240574,-0.56188035,0.0035708128,-0.004416047,-0.8117314,0.06876644,-0.0298006,0.0539422,-0.00734786466582204,0.0044128120208277105,1.6705775373923817,-0.015992325,0.007436854,0.00037369318,16.038252,-1.0,0.9267435,0.71742165,0.7180824,0.7180398,0.7174395
5.4,0.03370895,-0.008477316,-0.64228535,0.012001374,-0.008249311,-0.78306323,0.077620104,-0.03557138,0.48411867,-0.008016104356937606,0.004531056746835044,1.670503518617276,0.010904675,-0.011573988,-0.0011335856,16.038252,-1.0,0.9267435,0.7043145,0.7088282,0.7074094,0.70547056
5.5,0.03829617,-0.010197448,-0.7176603,0.020181417,-0.011248425,-0.74744886,0.05066548,-0.016705746,0.24283676,-0.004657437008816933,0.002263530202035819,1.6704313364714296,0.0486131,-0.031082932,-3.306924e-05,16.038252,-1.0,0.9267435,0.71579915,0.71717185,0.71723586,0.7154481
5.6000000000000005,0.043983966,-0.012340426,-0.7951001,0.023868114,-0.012230055,-0.73195356,-0.014721272,0.012470076,0.08135335,0.0017417551547590602,-0.0013326489086581982,1.6703540455282293,0.07854065,-0.04043614,0.0003253954,16.032253,-1.0,0.9234247,0.7235847,0.7262358,0.72560567,0.72399265
5.7,0.048760574,-0.014247606,-0.8709688,0.01824492,-0.009767019,-0.727082,-0.116542414,0.040508144,0.029886605,0.010626184174165578,-0.005503660889285265,1.6702304907557968,0.08693191,-0.040368814,-0.00087203336,16.026253,-1.0,0.9200983,0.7262669,0.7223274,0.7238352,0.72447234
5.800000000000001,0.05098217,-0.015626991,-0.9401556,0.0038968849,-0.0048971972,-0.72514296,-0.17725477,0.06722412,0.00060116866,0.017096168387421354,-0.008502485960382078,1.6700513074706755,0.04136284,-0.02210273,0.0013405625,16.026253,-1.0,0.9200983,0.73020446,0.7238833,0.72479,0.7291471
5.9,0.05098069,-0.016710402,-1.0145154,-0.016009564,0.00236767,-0.7215136,-0.17392701,0.077592105,0.050990373,0.016439909724840152,-0.00944212898494791,1.6699167041497385,-0.057713766,0.007941618,0.00031764372,16.020254,-1.0,0.91677094,0.72723293,0.7179688,0.72214794,0.7231926
6.0,0.049459986,-0.017289065,-1.0823679,-0.028677428,0.008306497,-0.7151114,-0.07384404,0.052365202,0.07338309,0.005484706050411719,-0.005456505606372236,1.669935371461208,-0.14514184,0.05838676,-1.5030684e-05,16.020254,-1.0,0.91677094,0.72572225,0.7235407,0.7241732,0.72509646
6.1000000000000005,0.046843264,-0.017699808,-1.1549064,-0.02785121,0.010064726,-0.7080646,0.089200996,0.0045559052,0.034418885,-0.009672698138422146,0.0009419354598644759,1.6700223877844502,-0.138755,0.062007222,0.000501448,16.014254,-1.0,0.91344357,0.71960527,0.7296117,0.72799325,0.7210201
6.2,0.04518895,-0.017927838,-1.2216022,-0.014802834,0.007838282,-0.7005115,0.16132185,-0.03453888,0.104023606,-0.01595172893504282,0.005185921619672403,1.6701453544735103,0.008174647,0.0142681785,0.0008291526,16.014254,-1.0,0.91344357,0.71768343,0.72696686,0.7240549,0.7207654
6.300000000000001,0.045816652,-0.018350938,-1.293029,0.0002893838,0.0040212544,-0.689979,0.11062592,-0.030921916,0.10278634,-0.010630904328785494,0.004138326328660634,1.6702266668550836,0.06448746,-0.01859542,0.0005843848,16.008255,-1.0,0.9101162,0.7208054,0.71987605,0.71961683,0.72146183
6.4,0.048503973,-0.01943195,-1.3578967,0.008695231,0.0010893685,-0.6789515,0.050559323,-0.018084873,0.116437204,-0.005224642455247209,0.0022338484482465008,1.6701055527592152,0.0470912,-0.01756609,0.00061448105,16.008255,-1.0,0.9101162,0.72196186,0.7207161,0.72077674,0.72196347
6.5,0.052355163,-0.02118312,-1.4213878,0.012979631,-0.00096401817,-0.667088,0.008225959,-0.016135437,0.112106554,-0.001452153878994157,0.0007685637239674967,1.6698405791520585,0.03241283,-0.012873247,-0.0003061895,16.008255,-1.0,0.9101162,0.7200357,0.71892023,0.7189416,0.719922
6.6000000000000005,0.0571321,-0.023140501,-1.4886658,0.0146072935,-0.0020489935,-0.6526012,-0.011541995,0.0020121548,0.14315824,0.001039459323048113,-0.0003445730567213876,1.669576424174668,0.022001961,-0.009344699,0.0010752259,16.002254,-1.0,0.9067888,0.7207605,0.7200033,0.71971107,0.7209364
6.7,0.061721124,-0.024551965,-1.5546155,0.013777799,-0.00175445,-0.6374686,-0.029515779,0.0063497117,0.1483825,0.002673330621454956,-0.001199145393835921,1.6694099330465995,0.013774687,-0.007599088,9.75034e-05,15.996256,-1.0,0.90346146,0.71882683,0.7182148,0.71851957,0.7185602
6.800000000000001,0.065627016,-0.025417274,-1.6140578,0.011425609,-0.00086521957,-0.62176627,-0.040769998,0.014122695,0.16193463,0.0037606023352742255,-0.0017376157941371604,1.669374274471502,0.008501651,-0.0035178177,0.00084922346,15.996256,-1.0,0.90346146,0.71918476,0.7193234,0.7193287,0.7194143
6.9,0.06920242,-0.026027579,-1.6765038,0.0077307275,0.0005142724,-0.60430086,-0.037349936,0.011515151,0.17015588,0.004423652511365463,-0.0020002194606375855,1.669424325351819,0.0048496593,-0.0009835055,-0.00037738512,15.990255,-1.0,0.9001341,0.71750104,0.7178931,0.7177518,0.71799403
7.0,0.071561724,-0.026847444,-1.7324946,0.0034029002,0.0014924136,-0.58686817,-0.056021806,0.014418573,0.1762933,0.004816668809364132,-0.002094273475140478,1.6694683193364355,0.0013450257,-0.00035424612,0.00043604148,15.990255,-1.0,0.9001341,0.7184185,0.71862376,0.7185722,0.7186801
7.1000000000000005,0.07317683,-0.027662378,-1.7912537,-0.0015041097,0.0026090096,-0.5679997,-0.05150154,0.01885605,0.18097086,0.0048783143331579655,-0.002106688644126289,1.6695276954395042,-0.0013264157,-0.00081078784,0.00065051235,15.984257,-1.0,0.8968067,0.7173735,0.716825,0.71748894,0.7169115
7.2,0.07352574,-0.027536731,-1.8433484,-0.0063448898,0.0038663535,-0.5436732,-0.04515393,0.006208319,0.36848846,0.004559674119138644,-0.0019403605473263083,1.6696218392915363,-0.006834595,0.005959347,0.00016024048,15.984257,-1.0,0.8968067,0.70128673,0.7009435,0.7009336,0.7015768
7.300000000000001,0.0724962,-0.0267951,-1.8949653,-0.011348997,0.0053389636,-0.47806478,-0.0392259,0.007645069,0.83369523,0.003547888729334893,-0.001144784625119772,1.6696935678369889,-0.0115768695,0.0080408435,-0.00047682723,15.978256,-1.0,0.89347935,0.6858858,0.6855465,0.68607616,0.68528247
7.4,0.07042566,-0.025899021,-1.9337581,-0.014909808,0.0061837416,-0.37729487,-0.023680847,0.0017513902,1.1969441,0.002386268081161095,-0.00027046994218342716,1.6698240515155218,-0.011731435,0.008098524,-0.0004463152,15.978256,-1.0,0.89347935,0.6607334,0.6604205,0.6604555,0.6607339
7.5,0.06818469,-0.024753042,-1.9602462,-0.017430672,0.006478918,-0.2576438,-0.012983506,-0.004936563,1.0591736,0.001205936644768773,0.0005486628430370865,1.669891112776423,-0.010801216,0.007824615,-0.00091220776,15.978256,-1.0,0.89347935,0.6860365,0.6855735,0.68555075,0.68594104
7.6000000000000005,0.06603502,-0.023226313,-1.9765886,-0.018557701,0.006216108,-0.17529702,-0.00083254505,-0.014575184,0.5350364,8.106741699111139e-05,0.0013142988336581425,1.669893808931252,-0.01045882,0.006995489,-0.00029350907,15.972258,-1.0,0.89015293,0.70993555,0.70973015,0.70988226,0.7096907
7.7,0.06414027,-0.021958074,-1.9865209,-0.018198509,0.005299603,-0.1410467,0.010093213,-0.01912034,0.12254481,-0.0006616197849721196,0.0017284202218614938,1.6698649034248811,-0.0029205733,0.00071732025,-0.0006290565,15.966257,-1.0,0.88682175,0.7249142,0.7250972,0.72484833,0.72495157
7.800000000000001,0.063311934,-0.021272022,-1.9952661,-0.016821913,0.003969199,-0.14200963,0.0033690538,-0.014210146,-0.14646257,-0.0008098626815251045,0.0016466400449268277,1.6698452751883248,0.0002565036,-0.0021789162,-0.00035113384,15.966257,-1.0,0.88682175,0.7387706,0.7389864,0.7389397,0.73877627
7.9,0.0632859,-0.020900095,-2.0077727,-0.014910097,0.0026983144,-0.16663885,0.005035599,-0.011583219,-0.31078932,-0.0006393463253399412,0.0013323971561178193,1.6697807074393052,0.002447898,-0.0037525725,-0.00012608965,15.9602585,-1.0,0.88348866,0.74198776,0.74204797,0.7421937,0.741801
8.0,0.063462414,-0.020863375,-2.023095,-0.013602757,0.0014478555,-0.1952327,0.0016626237,-0.013608159,-0.28280166,-0.0003037365277022668,0.000974770193030254,1.6697101782747121,0.0047636093,-0.004379287,-0.00021506565,15.9602585,-1.0,0.88348866,0.7395575,0.7386477,0.7388575,0.7390857
8.1,0.063336655,-0.02077773,-2.0415545,-0.013093381,0.0009616452,-0.21543792,0.003683966,-0.006001416,-0.15875603,-7.925944717311353e-05,0.000711083650339063,1.6696845475756208,0.0007304116,-0.0014681851,3.024036e-05,15.9602585,-1.0,0.88348866,0.7333267,0.7329762,0.733172,0.7330043
8.200000000000001,0.063191675,-0.020623766,-2.0638552,-0.013242696,0.0007115562,-0.22549646,-0.0034954648,-0.005106645,-0.046722587,-8.26503782716258e-05,0.0006795303568593716,1.6696483202266823,-0.00064901466,0.00017725883,0.0007246517,15.954258,-1.0,0.8801565,0.72924304,0.7293917,0.7291981,0.7292774
8.3,0.06309369,-0.02088988,-2.087838,-0.013183866,0.00018647991,-0.2271432,-0.0020906262,-0.009648531,0.022387596,-0.0001251133116174807,0.0007146136841135579,1.669608556887018,-0.0015476979,-6.846265e-06,0.00020153014,15.948259,-1.0,0.8768234,0.72614384,0.72640944,0.7264241,0.7258314
8.4,0.06302288,-0.021583563,-2.1105459,-0.012674291,-0.0008358813,-0.22272722,0.0026325101,-0.012015661,0.07097935,-0.00019158688129292096,0.0007028059173602723,1.6696338536224475,-0.0011001892,0.00034409252,0.0005406819,15.948259,-1.0,0.8768234,0.72406375,0.7248839,0.7242657,0.72448266
8.5,0.06291961,-0.022558868,-2.132918,-0.012374773,-0.0017712982,-0.21475399,0.0026630505,-0.0020640444,0.09592622,-0.00026646206772107004,0.0006150163375022184,1.6696913102536879,-0.0009363493,-0.0023369612,3.852078e-05,15.948259,-1.0,0.8768234,0.72348934,0.7225626,0.72321564,0.72278696
8.6,0.06292689,-0.02383385,-2.1563776,-0.0118756415,-0.0030228118,-0.20398697,0.0053587314,-0.0018149295,0.11647492,-0.00034908513114886267,0.000463653797856003,1.669725541851331,0.00045061085,-0.0028298423,0.00039127958,15.942259,-1.0,0.8734913,0.7233304,0.72265863,0.7229759,0.72288746
8.700000000000001,0.06286531,-0.02524305,-2.178804,-0.01132492,-0.003814009,-0.19210277,0.00428403,-0.0020719387,0.11900346,-0.0003396836398595385,0.00025525565087494305,1.6697853390663027,-0.0002177131,-0.0028450955,-0.00054705946,15.93626,-1.0,0.87015915,0.7225737,0.72264653,0.7227343,0.72255605
8.8,0.06296079,-0.0264653,-2.1983974,-0.010895321,-0.004396552,-0.18140149,-0.0026651667,-0.0065384535,0.1145401,-0.00034161366444080934,-4.677548791795816e-05,1.6698061412259906,-0.0002617536,-0.0021289228,-0.00023274998,15.93626,-1.0,0.87015915,0.72289443,0.7234112,0.72309166,0.72327
8.9,0.06314081,-0.028075842,-2.2169645,-0.01075822,-0.00501871,-0.1710999,0.002782084,0.0032064014,0.10944157,-0.0004006708571384405,-0.0003381646379205903,1.6698436629633393,-0.0004563408,-0.0028158824,-0.00052374776,15.93626,-1.0,0.87015915,0.7231458,0.7229211,0.72307396,0.7231643
9.0,0.06279865,-0.030264068,-2.235739,-0.0107717095,-0.005755982,-0.1608086,0.0045645293,0.005697061,0.09376369,-0.0004681981142801725,-0.0006200935619253738,1.6698849555674502,3.0278934e-05,-0.003633504,0.0007932274,15.93026,-1.0,0.86682606,0.72357154,0.72361803,0.7235499,0.72397465
9.1,0.062481392,-0.032358073,-2.2524376,-0.010907438,-0.0059624435,-0.1518506,0.0025909839,0.007683049,0.08647749,-0.000565584500002787,-0.0009849158509156902,1.6698804961660876,-0.0015251272,-0.0031345857,1.5736478e-06,15.93026,-1.0,0.86682606,0.72344303,0.7235651,0.72357935,0.7236038
9.200000000000001,0.062424302,-0.034866247,-2.2698507,-0.010424639,-0.0058846273,-0.14228465,0.010374595,0.013571256,0.10096467,-0.000662314344422507,-0.00135731359382322,1.6698568073373667,-0.0003397933,-0.0039713867,0.0003627325,15.924261,-1.0,0.8634939,0.7241965,0.7239559,0.7239665,0.7241845
9.3,0.062276043,-0.03723765,-2.286433,-0.009722084,-0.005518818,-0.13340515,0.006672218,0.013284868,0.08895527,-0.0007454910610989465,-0.001675997248832627,1.6698489594709738,0.00047349348,-0.004552634,0.00024276618,15.918261,-1.0,0.8601608,0.7244909,0.7233665,0.72384804,0.72402483
9.4,0.062276192,-0.038948998,-2.3007112,-0.008861365,-0.0043344344,-0.12555884,0.011218438,0.012468909,0.079848334,-0.0007624948496875466,-0.002020330204433109,1.669866582746658,0.00036734444,-0.0033499831,0.00026536616,15.918261,-1.0,0.8601608,0.7245062,0.7243399,0.7245138,0.72449917
9.5,0.06227962,-0.040171236,-2.313826,-0.008108143,-0.0027568196,-0.11819252,0.001969769,0.017354626,0.074475065,-0.0007201148535975001,-0.0022918183412155768,1.6698985688153936,0.00055218884,-0.0030228838,-0.0004913648,15.918261,-1.0,0.8601608,0.724805,0.72416663,0.72505736,0.72423136
9.600000000000001,0.062394314,-0.04102072,-2.3267457,-0.007195696,-0.00046316677,-0.11106932,0.007334134,0.022203384,0.06529549,-0.0006726628074142451,-0.0023757319016881424,1.669919004150571,0.00083180453,-0.0015695114,0.00049561675,15.912262,-1.0,0.8568287,0.72535986,0.7249146,0.72555894,0.7251063
9.700000000000001,0.062817715,-0.041064914,-2.3386185,-0.006215801,0.0019770046,-0.10483254,-0.0017103888,0.02371755,0.050817613,-0.000549563733547877,-0.002334944159330553,1.6699033549592561,0.0015446253,0.0011824829,9.382813e-05,15.906261,-1.0,0.8534956,0.72511405,0.72551924,0.7251393,0.7256654
9.8,0.06328725,-0.040753584,-2.3487866,-0.0057064686,0.0042160978,-0.09974198,0.002313739,0.023106473,0.047235746,-0.0003951747885892708,-0.002173639954406514,1.6698886888305762,0.0028561915,0.0021899545,-0.00040821824,15.906261,-1.0,0.8534956,0.72621614,0.72556394,0.72580004,0.72599983
9.9,0.06316346,-0.040575042,-2.3585606,-0.0059595346,0.005845579,-0.095391996,-0.0032252236,0.015197027,0.041478775,-0.0002757364999089161,-0.001885869754901646,1.6699183936609383,0.00048257917,0.002277472,0.00022895446,15.906261,-1.0,0.8534956,0.7259093,0.7256605,0.7261909,0.72542775
10.0,0.06279359,-0.04010334,-2.3686543,-0.0061946837,0.0077076997,-0.09068489,-0.0005268655,0.016083773,0.04358822,-0.00019583643869659667,-0.001609912240663337,1.6699304225483869,-0.00011483327,0.0019282188,-0.0013767879,15.900263,-1.0,0.85016346,0.72635514,0.7260658,0.7263417,0.7259264
10.100000000000001,0.062541276,-0.03889598,-2.3785837,-0.0060864408,0.009370567,-0.08673893,-0.00080357015,0.0065410365,0.045353077,-0.00020321820171408786,-0.001269031340064459,1.669998754928979,-0.0003651464,0.0034902114,0.00036312017,15.894262,-1.0,0.84683037,0.72589934,0.72576416,0.7261232,0.7257415
10.200000000000001,0.062665,-0.037313018,-2.387408,-0.0055634873,0.01080788,-0.083123505,-0.001728793,0.008421091,0.03583403,-0.0002066663571198,-0.0008832940260000734,1.6700001949607441,-8.2673505e-05,0.0045562317,-0.0004707278,15.894262,-1.0,0.84683037,0.72569084,0.7260568,0.7262057,0.72589076
10.3,0.063225806,-0.035690702,-2.3965662,-0.004740959,0.011425794,-0.07941647,-0.001208518,-0.00060292264,0.03668386,-0.00017644355297171673,-0.0005024771596658842,1.6698795731490481,0.00096337387,0.003321931,-3.0240692e-05,15.888264,-1.0,0.84349823,0.7257316,0.7255719,0.7256161,0.7257165
10.4,0.063773245,-0.034515124,-2.4044843,-0.0039019978,0.011334764,-0.07578127,0.0003144654,-0.0015137466,0.040830575,-4.18642773816149e-05,-0.00010704052287104994,1.6697190966025082,0.002123391,0.0040246425,-0.00011983914,15.888264,-1.0,0.84349823,0.72565126,0.7261057,0.72554827,0.7259202
10.5,0.06434019,-0.033470936,-2.4119613,-0.0034271716,0.0106179295,-0.072308265,0.00028851564,-0.008581844,0.032319218,0.00014733933744937402,0.0001614187787698012,1.6695648031455756,0.0015170795,0.0018175939,-0.000811574,15.888264,-1.0,0.84349823,0.72580427,0.7258472,0.7256258,0.7254279
10.600000000000001,0.06442318,-0.032788634,-2.419623,-0.0033896226,0.0097640725,-0.068403415,-0.0084138885,-0.008892778,0.037528105,0.0003108252073815136,0.000325594526481055,1.6694697384793817,0.0018849978,0.0011159014,0.00026162204,15.882263,-1.0,0.8401661,0.7260748,0.72621024,0.72556424,0.72594523
10.700000000000001,0.063656,-0.032368015,-2.426621,-0.0039854827,0.008511742,-0.0650797,-0.0023251188,-0.009461678,0.039818227,0.00039874697626854827,0.000439357747033678,1.669460264274314,0.00071431417,0.00036000885,0.0005492011,15.876265,-1.0,0.836833,0.72625583,0.7260881,0.72549325,0.7260842
10.8,0.06224359,-0.03208301,-2.432518,-0.004996754,0.0073742494,-0.06217384,-0.01147588,-0.009768029,0.032186504,0.00037873254314945576,0.00043346865387789926,1.6695412994009424,-0.002117949,-0.00077270536,-9.016039e-05,15.876265,-1.0,0.836833,0.7263961,0.72679305,0.7266512,0.72608876
10.9,0.06029122,-0.031692326,-2.438298,-0.006412089,0.0064300452,-0.059714995,-0.0028940246,-0.012148514,0.016036907,0.00016294724008746806,0.0003579305660906836,1.6696641071989515,-0.0043272353,0.00064594136,0.00054240326,15.876265,-1.0,0.836833,0.7259511,0.72711,0.7262861,0.7266105
11.0,0.057745766,-0.031124108,-2.4441855,-0.007512505,0.0055750143,-0.056946117,-0.00037270284,-0.0003148592,0.026274936,-0.0002152022394763991,0.00031844278390419573,1.6698179105125792,-0.0047121653,-0.00037798285,0.0009561048,15.870264,-1.0,0.83350086,0.726892,0.7267169,0.72696054,0.72694826
11.100000000000001,0.055131968,-0.030702798,-2.449727,-0.008249652,0.0047177947,-0.054615825,0.008999941,-0.0011931723,0.023586208,-0.0007201846130634599,0.00031657984576164436,1.6699663443201123,-0.0065531796,-0.00010141329,0.00082560774,15.864265,-1.0,0.8301678,0.7264911,0.72693574,0.7272702,0.72691363
11.200000000000001,0.0533785,-0.030589338,-2.4548888,-0.007677833,0.003910227,-0.05264447,0.012375533,-0.0028458252,0.020300036,-0.0012632369676652546,0.00032528088750273575,1.670005879420256,-0.005713481,-8.7831766e-05,0.0003490406,15.864265,-1.0,0.8301678,0.726603,0.72725636,0.7274473,0.72705674
11.3,0.052341335,-0.03051731,-2.4607513,-0.0063660876,0.0031488843,-0.05060212,0.019446094,-0.0009982702,0.023444647,-0.0016693603294361556,0.0003101704928084234,1.6699710009760234,-0.0038596806,-0.0009943908,-0.0009817957,15.858265,-1.0,0.82683563,0.7266085,0.7269484,0.7270166,0.7268881
11.4,0.05238793,-0.030503094,-2.466093,-0.004530636,0.002394527,-0.048798762,0.019554539,0.0024635894,0.02905959,-0.0019118272309651839,0.00022413714618556163,1.6699303474669382,-0.0017858046,-0.0012832178,0.0011085568,15.858265,-1.0,0.82683563,0.72650653,0.72698325,0.72703046,0.72674924
11.5,0.05337323,-0.030111356,-2.4712608,-0.0019695875,0.0022094594,-0.046337295,0.023578089,0.00024400486,0.02848217,-0.0018892562176782042,0.0001570275815329323,1.669868051408903,0.001913989,-0.0003895302,-0.00058945647,15.858265,-1.0,0.82683563,0.7266643,0.7268039,0.72667104,0.726816
11.600000000000001,0.055195708,-0.028994603,-2.4762156,0.00071932026,0.0027550366,-0.043873902,0.015877116,0.0022544796,0.032173,-0.0016204849636705905,7.068957313482461e-05,1.6698438862829061,0.0028827123,-6.3178144e-05,-0.0011053036,15.852265,-1.0,0.82350254,0.72646224,0.7274959,0.7273132,0.726618
11.700000000000001,0.057341356,-0.027433211,-2.4807315,0.00302018,0.0035602339,-0.04162221,0.011559872,0.0016802677,0.020170582,-0.0011302210652090342,0.00010362976983240314,1.6698557441425674,0.0055926885,0.0015072676,-0.00033065758,15.846266,-1.0,0.8201704,0.72678053,0.72728646,0.727123,0.7269032
11.8,0.05950973,-0.026181651,-2.4842613,0.0046999436,0.0039256415,-0.039174836,0.008347028,-0.007985828,0.022842081,-0.0005253220865267024,0.0003025908706299726,1.669852792605777,0.0062293657,0.002500518,0.00032515015,15.846266,-1.0,0.8201704,0.72775334,0.72737855,0.7277321,0.72733015
11.9,0.06200047,-0.025415104,-2.4868906,0.005840183,0.0035226422,-0.03746239,-0.0044272174,-0.009534494,0.010800547,7.80946538110915e-05,0.0005242200291433246,1.6698246705672701,0.0050115823,0.0017731414,-0.0007551897,15.846266,-1.0,0.8201704,0.7274696,0.7283384,0.72816926,0.7276121
12.0,0.06439861,-0.02464479,-2.4889529,0.006122925,0.0029922419,-0.036238454,-0.008011102,-0.008083184,0.000629574,0.0006616512358991729,0.0006565937523908813,1.6697879538066607,0.004674735,0.00040104048,0.00031737395,15.840266,-1.0,0.8168373,0.72822946,0.7286317,0.7286678,0.7281385
12.100000000000001,0.06672526,-0.023565173,-2.4909701,0.00555008,0.002449334,-0.035787016,-0.013824068,-0.015692713,-0.0073444094,0.0011249183597950173,0.0006829844259106146,1.6697625570693488,-0.0013988495,-0.0041597765,-0.0023955328,15.834267,-1.0,0.8135052,0.6892592,0.67482805,0.73595464,0.80386984
12.200000000000001,0.06919031,-0.02206895,-2.494881,0.012902133,0.008448809,-0.06940642,0.22446185,0.14805754,0.30520278,-0.03069833850868458,-0.015071284360131505,1.6561543731546846,-0.53204906,-0.1737781,-0.34370503,15.834267,-1.0,0.8135052,0.1434581,0.11739084,1.0,0.99919
12.3,0.07475356,-0.018706987,-2.496893,0.063772134,0.032718133,0.019483907,0.7087878,0.26754782,0.92222166,-0.08433654672565638,-0.028272016688013754,1.5916931718113874,-0.5105366,-0.005515575,-0.8939267,15.828267,-1.0,0.81017303,0.17707735,0.18611163,1.0,0.9864614
12.4,0.087182686,-0.012655532,-2.489798,0.15392742,0.057760186,0.09903112,1.0907978,0.20976156,0.7349527,-0.12122874867700897,-0.03378553001376835,1.4736142302326716,-0.31280082,0.11577346,-1.4085163,15.828267,-1.0,0.81017303,0.21559429,0.24101162,1.0,0.98979783
12.5,0.110403955,-0.0043950435,-2.4751513,0.2714163,0.07210953,0.1607675,1.2768465,0.06628145,0.5446388,-0.13462545182767696,-0.042326546835574845,1.3047648042189965,-0.10713249,0.13956226,-1.8969668,15.828267,-1.0,0.81017303,0.24953783,0.27122307,1.0,0.9966228
12.600000000000001,0.15011314,0.004580737,-2.453481,0.40940455,0.07157431,0.20291649,1.3227205,-0.07100258,0.041984018,-0.12598418708147782,-0.05781798202487986,1.0877634713873394,0.0418478,0.12124298,-2.3472,15.822268,-1.0,0.80683994,0.4111415,0.41965592,1.0,0.9986999
12.700000000000001,0.20678419,0.0112274885,-2.4343824,0.55873275,0.05778724,0.094533704,1.3510077,-0.14728153,-1.4563724,-0.10009046762823205,-0.07517555848736776,0.8310348243387854,0.119412296,0.11628349,-2.631098,15.816268,-1.0,0.8035078,0.6499569,0.64752537,0.8809304,0.8804257
12.8,0.27407822,0.014617643,-2.42933,0.67775214,0.04128773,0.010270637,1.0348351,-0.117363766,-0.51396334,-0.06548137995393606,-0.08370459534766185,0.557323646886975,0.13061672,0.14752184,-2.6327755,15.816268,-1.0,0.8035078,0.79737127,0.794114,0.6751643,0.67964524
12.9,0.35264573,0.014988754,-2.431532,0.7733578,0.024509069,-0.031002786,0.8333865,-0.0902082,-0.4289923,-0.033469696562425266,-0.08022172626210274,0.295805498266101,0.095690615,0.15599254,-2.3657756,15.816268,-1.0,0.8035078,0.9241979,0.92202556,0.5210293,0.5284813
13.0,0.4468758,0.011905479,-2.4396152,0.85714585,0.0066294293,-0.08765395,0.6514182,-0.0598813,-0.6054165,-0.010318485927194296,-0.06908458961640847,0.07046269922206619,0.057467427,0.15037474,-1.9148481,15.810268,-1.0,0.8001747,0.996819,0.9974823,0.41083097,0.41989636
13.100000000000001,0.54690415,0.0063072806,-2.453666,0.92025924,-0.008014403,-0.13141797,0.46492913,-0.021043833,-0.14247744,0.003703024230591787,-0.055449846115929353,-0.10331991980227936,0.030022983,0.1335055,-1.3791924,15.804269,-1.0,0.7968426,0.99752426,1.0,0.32563215,0.33609194
13.200000000000001,0.64250493,-0.00014181808,-2.468861,0.96263784,-0.017198749,-0.13204318,0.34534377,0.008078361,0.068765126,0.010580129101773167,-0.04307552941012306,-0.22020222204505185,0.007491087,0.10711821,-0.83621794,15.804269,-1.0,0.7968426,0.9964347,1.0,0.32123396,0.33019313
13.3,0.74844193,-0.0068928846,-2.4846783,0.997117,-0.020811016,-0.13892655,0.26476493,0.036155507,-0.22700381,0.012673223137300163,-0.03370963949568503,-0.28020949313174354,-0.009550556,0.07934272,-0.3219895,15.798269,-1.0,0.7935095,0.989396,0.9928988,0.37818906,0.38432142
13.4,0.8477228,-0.012071801,-2.5001843,1.0208524,-0.019897787,-0.15083615,0.1848358,0.04825531,0.075643875,0.011645627890937803,-0.02721739524281624,-0.2881089115928231,-0.020550743,0.059591003,0.12409391,15.798269,-1.0,0.7935095,0.924834,0.9297515,0.43044075,0.43485996
13.5,0.94766265,-0.016357796,-2.5150874,1.0369387,-0.017619608,-0.12609199,0.124676876,0.03496505,0.3932961,0.009007547853294263,-0.022713446053966524,-0.25491229277457017,-0.022229565,0.04346811,0.4588392,15.798269,-1.0,0.7935095,0.85728395,0.86234486,0.5088322,0.5120925
13.600000000000001,1.0564885,-0.020539207,-2.527783,1.0482941,-0.016064081,-0.07907347,0.08305917,0.017162612,0.47788534,0.005944957490500785,-0.019509462782151793,-0.19460086778330035,-0.018352557,0.030134782,0.66887844,15.79227,-1.0,0.79017735,0.7935291,0.7982847,0.59746265,0.59930134
13.700000000000001,1.165105,-0.025691915,-2.5347657,1.0539607,-0.01745548,-0.034332607,0.052507218,0.01692154,0.3762282,0.003284595394716486,-0.017085842303415887,-0.12060980934899194,-0.010178327,0.02151397,0.7607786,15.78627,-1.0,0.7868452,0.73440635,0.74005365,0.6787237,0.68037415
13.8,1.264771,-0.031726997,-2.5373924,1.055647,-0.021351656,-0.0063415705,0.031005556,0.00043866792,0.21606776,0.0015234175368625225,-0.015267674637843268,-0.04454492499565869,-0.00022107005,0.014681023,0.7467636,15.78627,-1.0,0.7868452,0.6856868,0.6918515,0.74403644,0.7466537
13.9,1.3637792,-0.038661715,-2.5375104,1.0552045,-0.026013276,0.0077701597,0.024478765,0.00754744,0.08853385,0.0007922462613945848,-0.014080628527969373,0.02504827836743091,0.008487867,0.007079125,0.6536039,15.78627,-1.0,0.7868452,0.64958024,0.6549722,0.78822255,0.7919022
14.0,1.4699173,-0.04714786,-2.5362184,1.0525179,-0.031261157,0.012748268,0.013401076,0.007947459,0.008202623,0.0008569047009586164,-0.013449804545488197,0.08212085363500841,0.01085651,-0.00028517356,0.50619894,15.780271,-1.0,0.7835121,0.62777525,0.6329903,0.8140936,0.8162861
14.100000000000001,1.5753598,-0.056042295,-2.534424,1.0490624,-0.035745695,0.012704502,0.01337819,0.010368048,-0.012282747,0.0014086713352545123,-0.013422753778710125,0.1235015387547434,0.01232585,-0.0051029874,0.33672926,15.774271,-1.0,0.78018,0.6202375,0.6249959,0.8217321,0.82494146
14.200000000000001,1.6721569,-0.06398283,-2.5329764,1.0460569,-0.038465,0.01243988,0.013431195,0.026006475,-0.00051967794,0.0022018191629822057,-0.013804974980675098,0.14836917844621242,0.010923904,-0.0069753514,0.16718169,15.774271,-1.0,0.78018,0.62500226,0.6295252,0.81707954,0.8207098
14.3,1.7762454,-0.07205283,-2.5313773,1.042649,-0.039577127,0.012679919,0.013084656,0.032383166,0.0042868773,0.0030026971445182133,-0.014278981939379256,0.15749759194145557,0.007553877,-0.006998894,0.015939662,15.768271,-1.0,0.7768469,0.6390844,0.64337283,0.80368125,0.80709624
14.4,1.8715781,-0.07887836,-2.529683,1.0394915,-0.039273556,0.014070085,0.017124172,0.034976225,0.01757685,0.0037373086221094603,-0.014802210575160698,0.15340229753496717,0.0050268765,-0.006698487,-0.10429858,15.768271,-1.0,0.7768469,0.6588925,0.6631961,0.784883,0.7887665
14.5,1.9663665,-0.0851607,-2.528122,1.0362175,-0.03792188,0.016563324,0.017121244,0.037886534,0.023560597,0.004289253715325662,-0.015249764545184692,0.13920369219975015,-0.00097124814,-0.0073486944,-0.18976729,15.768271,-1.0,0.7768469,0.68093145,0.6859783,0.7651838,0.7674068
14.600000000000001,2.068725,-0.09083176,-2.5260153,1.0333333,-0.03541768,0.01947181,0.03701113,0.041830946,0.025229061,0.004726576077692154,-0.015658664131869338,0.11872831421561283,-0.001470108,-0.005908287,-0.23718755,15.762272,-1.0,0.7735138,0.702992,0.7077603,0.74491686,0.7482961
14.700000000000001,2.1714356,-0.09490608,-2.5236416,1.0312357,-0.031608965,0.021567335,0.030760441,0.03995907,0.013194046,0.004954211726104499,-0.01600373828238248,0.09538449129757276,-0.004119331,-0.005463587,-0.25124818,15.756272,-1.0,0.7701807,0.72228557,0.72649425,0.7277825,0.73082876
14.8,2.266545,-0.09734267,-2.5213113,1.0301228,-0.027721748,0.022601115,0.030767366,0.032054827,0.0032875685,0.004951290616298402,-0.016218907626804148,0.07222903642402646,-0.005991249,-0.0036080824,-0.23822652,15.756272,-1.0,0.7701807,0.73682547,0.74144566,0.7144143,0.71737546
14.9,2.361827,-0.09893513,-2.5191875,1.0295889,-0.024062594,0.02264753,0.03435419,0.029655866,-0.008508096,0.004737764416046607,-0.01631476609351392,0.05156116505146624,-0.0062269694,-0.002363468,-0.20747933,15.756272,-1.0,0.7701807,0.7469171,0.7510036,0.7053592,0.7080915
15.0,2.465178,-0.09978283,-2.5172787,1.0292704,-0.020838112,0.021985412,0.033568233,0.017466934,-0.007357448,0.004431808261268971,-0.01628527482015011,0.03490160606092006,-0.007523279,-0.0004883143,-0.16525461,15.750273,-1.0,0.7668476,0.7511428,0.75646454,0.70099425,0.7033235
15.100000000000001,2.5693607,-0.099861436,-2.5154896,1.0293268,-0.017681938,0.021593306,0.026927685,0.013795916,0.00056996936,0.004089778131637961,-0.016216397335699788,0.022954090811712503,-0.0065434226,-0.0005168329,-0.11581201,15.744273,-1.0,0.7635145,0.7524872,0.7572079,0.7004322,0.7025753
15.200000000000001,2.6664615,-0.09932089,-2.5138311,1.0302314,-0.0153499665,0.020893944,0.033392288,0.013822117,-0.004542991,0.0037112631587311908,-0.01611458799935026,0.015605464874172057,-0.0059118513,0.0017671272,-0.069797754,15.744273,-1.0,0.7635145,0.7499754,0.75514716,0.70261925,0.7054047
15.3,2.7728505,-0.09766731,-2.5120897,1.0320604,-0.012816962,0.01982235,0.023062259,0.008595628,-0.007544178,0.0033295103377690527,-0.01593694350841493,0.012372863206876007,-0.0048067644,0.0018440492,-0.030877406,15.738274,-1.0,0.7601814,0.7457896,0.75033957,0.707295,0.70965606
15.4,2.8721006,-0.094555184,-2.510902,1.034008,-0.009551049,0.01883344,0.024972519,0.006362074,-0.01429906,0.0029412474866806018,-0.01564795774686768,0.012220233996368896,-0.0050156456,0.0037673283,-0.0009203868,15.738274,-1.0,0.7601814,0.7402981,0.7448352,0.7126842,0.7151926
15.5,2.9714935,-0.09024965,-2.510105,1.0354843,-0.0061574713,0.017973822,0.023200998,0.0033889625,-0.005959067,0.0024400204455798857,-0.015253264654009462,0.01434990324554155,-0.0049742186,0.0054902737,0.01928852,15.738274,-1.0,0.7601814,0.73449636,0.7392566,0.7178597,0.7214096
15.600000000000001,3.0788321,-0.0845769,-2.5092936,1.0362976,-0.0024825907,0.016904224,0.011319185,-0.006321908,-0.004170462,0.001883377953742113,-0.014874980526481462,0.017864941699474748,-0.0062736077,0.0044915155,0.028239112,15.732274,-1.0,0.75684834,0.72898644,0.7342381,0.72331655,0.72628593
15.700000000000001,3.185935,-0.07874763,-2.5077798,1.0359753,-0.0001243714,0.016202465,0.0024078179,-0.018965801,-0.0011152587,0.001253733707987981,-0.014520305056412034,0.022026975514742732,-0.006740172,0.0034511646,0.029735113,15.7262745,-1.0,0.75351524,0.72452056,0.73005164,0.72780484,0.73059493
15.8,3.284845,-0.07311659,-2.5065017,1.0357288,0.0015106506,0.015602718,0.0117375525,-0.015379093,-0.0050109806,0.0007423274313118568,-0.014288935190156537,0.026228115823394457,-0.005058899,0.0023586757,0.02611017,15.7262745,-1.0,0.75351524,0.7211452,0.7269322,0.7312244,0.7338995
15.9,3.38389,-0.06710848,-2.5054126,1.0354364,0.0027835565,0.01488333,-0.0021272425,-0.025372714,-0.0039790752,0.00036009812513351953,-0.014112300724020763,0.029679559047872603,-0.0030455473,0.0017418064,0.017140135,15.7262745,-1.0,0.75351524,0.71942,0.72441334,0.73310864,0.7362689
16.0,3.4920483,-0.060614157,-2.5038764,1.0359448,0.0037069798,0.014359034,0.002764289,-0.025856921,-0.0073141414,3.172372729754091e-05,-0.014011616731994424,0.03208998996720134,-0.0033615362,0.0015574587,0.004960417,15.720275,-1.0,0.75018215,0.7184701,0.723647,0.73440915,0.7369445
16.1,3.6009047,-0.05389269,-2.5020404,1.0371803,0.0046164263,0.0139376065,0.00074534904,-0.02745439,0.006997026,-0.00017081817141208295,-0.013834946617523075,0.03318907424429711,-0.0024202685,0.0040021795,-0.006926356,15.714275,-1.0,0.74684906,0.71856207,0.7238477,0.73424387,0.7370472
16.2,3.7016127,-0.04760179,-2.5003183,1.0378431,0.0055795866,0.013672086,0.0057801805,-0.032399625,-0.0033141111,-0.0003444329657303889,-0.013570176709027574,0.03301673510271039,-0.0016447032,0.0041846544,-0.017175289,15.714275,-1.0,0.74684906,0.7197248,0.7247522,0.73320466,0.7365976
16.3,3.8107696,-0.040934373,-2.4980106,1.0382059,0.0062366114,0.013012984,-0.005624635,-0.03397412,-0.011960044,-0.0005015212243687782,-0.013299979314572446,0.031820472586975866,-0.0019041831,0.0037276305,-0.027481632,15.708276,-1.0,0.74351597,0.72098136,0.72642195,0.73194975,0.73502034
16.400000000000002,3.9121332,-0.034969162,-2.4957752,1.0390764,0.006507462,0.012404332,-0.005313981,-0.03155408,-0.012375413,-0.00059817754805773,-0.01306865534259124,0.02982684985286025,-0.0014387586,0.00211333,-0.032642398,15.708276,-1.0,0.74351597,0.72305614,0.72774667,0.7305385,0.7329694
16.5,4.0141683,-0.029296428,-2.4931226,1.0404875,0.006721566,0.011920836,-0.009108603,-0.03974843,-0.005288515,-0.0006790862180995588,-0.012805817391611612,0.02745869157883195,-0.0012794016,0.0036018016,-0.03526673,15.708276,-1.0,0.74351597,0.7244534,0.7296267,0.7289256,0.7314049
16.6,4.1248946,-0.02360472,-2.4903455,1.0415711,0.0065229665,0.011323739,-0.011117255,-0.031523738,-0.005465466,-0.0007233414581465488,-0.012432371431080731,0.024969156894789787,-0.0016512782,0.0047576115,-0.036422968,15.702276,-1.0,0.7401829,0.7254948,0.73123914,0.7275896,0.7300911
16.7,4.2273555,-0.018643945,-2.4878874,1.0422381,0.0061076786,0.011164701,-0.019065315,-0.029781813,-0.0003040768,-0.0007088807933933839,-0.012102062675587002,0.02261750358076526,-0.0010779618,0.0034000922,-0.03469614,15.702276,-1.0,0.7401829,0.7268873,0.73216575,0.7268925,0.72890496
16.8,4.338862,-0.01368084,-2.4857438,1.0429606,0.005482896,0.0105399005,-0.02027586,-0.027014079,-0.011119059,-0.0006526726157347665,-0.011798681982482238,0.02050961388538882,-1.9523563e-05,0.0034219641,-0.032802064,15.696277,-1.0,0.7368498,0.7274687,0.73287,0.72593004,0.72850615
16.900000000000002,4.450424,-0.009062362,-2.4842014,1.0432419,0.0046276203,0.009825567,-0.022220518,-0.031482454,-0.0041220332,-0.0005461887552767518,-0.011516760895161295,0.018793350784063727,0.0004020104,0.0028309354,-0.02770621,15.690277,-1.0,0.7335167,0.7277789,0.73297024,0.7256603,0.7281418
17.0,4.5531263,-0.0049556233,-2.4835048,1.0429585,0.0038542745,0.009310475,-0.022612674,-0.026518507,-0.009905546,-0.0004245008861472163,-0.011232946166963995,0.017450018619014716,0.0008895748,0.0027342536,-0.02479272,15.690277,-1.0,0.7335167,0.7277172,0.7329969,0.7255515,0.72822607
17.1,4.6646576,-0.000733846,-2.4848514,1.0413761,0.003149407,-0.008519134,-0.10341161,-0.026242442,-0.23016146,-0.00014303414427839395,0.0010836136920354335,0.016476612237194353,0.005587953,0.40184683,-0.021190757,15.684278,-1.0,0.7301836,0.74294066,0.7301538,0.74183124,0.72527224
17.2,4.7667737,0.0031145315,-2.488588,1.0060997,0.0023722432,-0.022949819,-0.64913845,-0.028300082,-0.050866507,0.0007453431776306931,0.05844184621619734,0.015896033545847055,0.008818235,0.57801694,-0.018396141,15.684278,-1.0,0.7301836,0.7190499,0.7404881,0.71796775,0.7369423
17.3,4.8698816,0.0071467194,-2.493258,0.91213846,0.0016351056,-0.019797163,-1.1076158,-0.03122592,0.09095808,0.001517342310795493,0.10301399307570462,0.015546921697135776,0.0061581996,0.3262903,-0.01591533,15.678278,-1.0,0.7268505,0.7174963,0.73715866,0.71734273,0.73463595
17.400000000000002,4.952315,0.010971476,-2.4974155,0.79404896,0.0012195872,-0.0103895925,-1.2983241,-0.026520187,0.115450464,0.0019696015999325156,0.12207432838442422,0.015378409680140263,0.005227937,0.09309316,-0.014376488,15.678278,-1.0,0.7268505,0.7204709,0.73384345,0.7201632,0.73342633
17.5,5.0203567,0.015084109,-2.5002513,0.66624075,0.0013694813,-0.0005263023,-1.2979159,-0.020868706,0.10574422,0.0020822991098191105,0.12266193290858737,0.014908263635239586,0.0024809178,-0.053673733,-0.01478718,15.678278,-1.0,0.7268505,0.72415525,0.7318011,0.72446626,0.7320203
17.6,5.07797,0.019977212,-2.50194,0.53156096,0.00210159,0.007269897,-1.1982659,-0.01672097,0.05917204,0.001994462185984835,0.11265539020353262,0.013663525237205498,-0.00036897522,-0.13045491,-0.014348054,15.672278,-1.0,0.7235174,0.72635806,0.7317332,0.72718835,0.7314105
17.7,5.117161,0.024578506,-2.5022252,0.41813496,0.0032264371,0.01122778,-1.0549176,-0.012734732,0.0307383,0.0017711257429133779,0.09772925226858502,0.011759617563435854,-0.001665406,-0.16084751,-0.013944002,15.672278,-1.0,0.7235174,0.72885424,0.7311415,0.7283898,0.7303445
17.8,5.1470404,0.030265335,-2.501829,0.3119865,0.005421671,0.01294062,-0.8707296,-0.020067843,0.0075534913,0.001412568700319835,0.08135495067705363,0.009247236035823185,-0.004775251,-0.16601129,-0.013155941,15.666279,-1.0,0.7201843,0.7304063,0.73146,0.7291395,0.7283935
17.900000000000002,5.166215,0.03668092,-2.5005898,0.22365971,0.00862675,0.013002356,-0.70105195,-0.024357762,-0.0048396173,0.0009755127043145431,0.06560580565877465,0.006403847119194632,-0.006150962,-0.15223432,-0.009415588,15.660279,-1.0,0.71685123,0.73166984,0.7317477,0.7283766,0.72728324
18.0,5.176501,0.043462884,-2.499459,0.15734412,0.011679965,0.012017548,-0.55620956,-0.028010204,-0.01073908,0.000365483344545855,0.051490442763931596,0.004103082066219407,-0.0071154404,-0.13361521,-0.0058974987,15.660279,-1.0,0.71685123,0.7323924,0.73191446,0.72722054,0.726419
18.1,5.181881,0.051430207,-2.4978113,0.100396276,0.01445167,0.010875076,-0.43419415,-0.035226252,-0.015116761,-0.0003077799728617656,0.03942101665694465,0.0029073597539419926,-0.0077673416,-0.11130116,-0.0012420523,15.65428,-1.0,0.71351814,0.7322246,0.73198116,0.72721285,0.72559863
18.2,5.1827865,0.059353683,-2.4956052,0.059314772,0.016580608,0.010002092,-0.32947192,-0.037790604,-0.008583068,-0.0009452453243634657,0.029432874371154424,0.0023323436156753403,-0.007554992,-0.09208962,0.0030301302,15.65428,-1.0,0.71351814,0.73172575,0.7315306,0.72757417,0.7254781
18.3,5.181276,0.06832564,-2.4931095,0.025393577,0.0189112,0.00905754,-0.2410416,-0.038124163,-0.010068993,-0.001526158705250482,0.02140967186864075,0.002244398654608268,-0.00642085,-0.07216002,0.007719874,15.64828,-1.0,0.71018505,0.7310894,0.73064214,0.727398,0.72658044
18.400000000000002,5.179033,0.076486155,-2.490609,0.002486567,0.020001944,0.008592185,-0.17698881,-0.042902052,-0.00981707,-0.002005764191934489,0.015072221413797219,0.0026138875487968453,-0.0058606626,-0.05581535,0.009319564,15.64828,-1.0,0.71018505,0.72995275,0.73021394,0.72842216,0.72700953
18.5,5.177071,0.08454547,-2.4880438,-0.012943374,0.020449854,0.007815465,-0.12921293,-0.052417036,-0.010018236,-0.0024255592373692704,0.010223764806320175,0.0032067733185471353,-0.004287812,-0.04166156,0.010890825,15.64828,-1.0,0.71018505,0.7292749,0.72915083,0.7290225,0.72768974
18.6,5.1758447,0.092678525,-2.4860368,-0.022885049,0.01991611,0.0070628673,-0.09106234,-0.044029422,-0.012246425,-0.002729992958603942,0.00673155873522536,0.004235886799122557,-0.0035931065,-0.027784565,0.010597828,15.642281,-1.0,0.70685196,0.7279589,0.7286937,0.7296603,0.7283902
18.7,5.175995,0.09942533,-2.4842968,-0.0281471,0.018680474,0.0068597062,-0.06881242,-0.042773496,-0.009472015,-0.0028558149031176123,0.004410356763942827,0.00547024882092671,-0.0012354153,-0.017736128,0.008650706,15.642281,-1.0,0.70685196,0.7275268,0.7277677,0.73022157,0.7293411
18.8,5.1775513,0.10640647,-2.4818604,-0.030138977,0.017450485,0.0065176203,-0.053615265,-0.03515265,-0.008379108,-0.0028284640525988803,0.002971513705505259,0.006766334988449622,0.0007559011,-0.009367454,0.006160081,15.636281,-1.0,0.70351887,0.72697634,0.7271144,0.73051506,0.73025566
18.900000000000002,5.1800404,0.11339991,-2.4791327,-0.030319316,0.016351908,0.0062953657,-0.036624666,-0.041644175,-0.00545755,-0.002764688277278314,0.0022180888935069963,0.0078050648633185395,0.00048954383,-0.0027526792,0.0037236155,15.630281,-1.0,0.7001858,0.7264621,0.72690094,0.7306323,0.7309681
19.0,5.1830893,0.11985418,-2.4768226,-0.029624905,0.015478894,0.0060544447,-0.041609246,-0.040968906,-0.005744863,-0.002646065434600429,0.0019002970611453971,0.008438474377119925,0.00045854397,0.0004569405,-7.415721e-05,15.630281,-1.0,0.7001858,0.726373,0.7268153,0.730988,0.73088205
19.1,5.187311,0.12653138,-2.4750583,-0.02846796,0.014792333,0.005490231,-0.03980795,-0.042002857,-0.0068149525,-0.0025586928965668815,0.001809954003034133,0.008716307017618047,0.00055532163,0.0009973556,-0.0039517926,15.624282,-1.0,0.6968527,0.7267794,0.7264914,0.73091877,0.7305994
19.200000000000003,5.191679,0.13216037,-2.4732041,-0.027315367,0.013956321,0.00498212,-0.03592754,-0.037342764,-0.005879439,-0.0024775649688493356,0.0018643643583523212,0.008685592173958187,0.00017784715,0.0032008651,-0.0067642755,15.624282,-1.0,0.6968527,0.72630745,0.72739416,0.73023105,0.73051584
19.3,5.197014,0.13820095,-2.4710774,-0.025750637,0.013412657,0.0048006894,-0.035172142,-0.037594035,0.0030980443,-0.00242331058606093,0.001973433422340376,0.008353104363498148,-0.0001205055,0.0025567512,-0.009219566,15.618282,-1.0,0.6935196,0.72716326,0.7274173,0.7300058,0.72989434
19.400000000000002,5.202449,0.14379944,-2.470056,-0.024177236,0.013304043,0.0044382587,-0.039117165,-0.03474725,0.0040926966,-0.002372121404195123,0.0021245042372914436,0.007745884171831438,-0.00037536948,0.0028653746,-0.0098305475,15.618282,-1.0,0.6935196,0.72749996,0.7279984,0.72944176,0.72943354
19.5,5.208144,0.14895,-2.4687603,-0.023008604,0.012525423,0.003977987,-0.044494238,-0.032493718,-0.006247777,-0.0023949020102467774,0.0023562219555240014,0.007137616781928178,-0.0012732875,0.005311516,-0.011210921,15.618282,-1.0,0.6935196,0.72743046,0.7287909,0.7288267,0.7290233
19.6,5.214013,0.15356235,-2.467669,-0.022476368,0.010768631,0.003499841,-0.04474887,-0.036225434,0.00086938957,-0.0023772938484710585,0.0025287371206443913,0.006608150011920178,0.0004020896,0.0033813533,-0.010675153,15.612283,-1.0,0.6901865,0.72792083,0.7287931,0.72848535,0.72853136
19.700000000000003,5.218475,0.15720128,-2.4668062,-0.023193965,0.008636113,0.003190097,-0.040556993,-0.033413913,-0.0014705582,-0.0022123313820261153,0.0026000935367683745,0.006207305772241695,0.0023525893,0.0015065635,-0.010805519,15.606283,-1.0,0.6868534,0.7282921,0.7287377,0.7279874,0.7285594
19.8,5.2220035,0.15968978,-2.465636,-0.024309505,0.006424138,0.0031371822,-0.04664915,-0.028024742,-0.0017876736,-0.0019788987500374148,0.00251670283930299,0.005932867868180321,0.0023166346,-0.0010158044,-0.010576186,15.606283,-1.0,0.6868534,0.7282307,0.7289665,0.7283632,0.72811395
19.900000000000002,5.2255087,0.16168916,-2.4638698,-0.025156252,0.0038377794,0.0031525902,-0.04279123,-0.032617398,0.006706919,-0.0016875587249619768,0.0023342724036057917,0.005694586130479309,0.0038079224,-0.0022037616,-0.009510076,15.600284,-1.0,0.6835203,0.7287323,0.728481,0.72840214,0.728176
20.0,5.2284217,0.16338545,-2.462431,-0.025782578,0.0020158156,0.003142811,-0.037816837,-0.023042873,-0.001370441,-0.0013153029591038044,0.0021009033363532867,0.005459841842917751,0.004187629,-0.0012509009,-0.009035434,15.600284,-1.0,0.6835203,0.7285575,0.7287623,0.72820336,0.7285219
20.1,5.231182,0.16563596,-2.4606218,-0.02644811,0.0012619232,0.0030735913,-0.036619127,-0.014002667,0.0017001292,-0.0009519872386792882,0.0018970712758424383,0.005147449184038943,0.0037494893,-0.00054805994,-0.007507761,15.594284,-1.0,0.6801872,0.7285819,0.7287719,0.7279222,0.72884655
20.200000000000003,5.233316,0.1676182,-2.4592888,-0.02700022,0.00071534177,0.002775817,-0.032006115,-0.017870307,0.0018863938,-0.0007557160534019938,0.0017031153884044194,0.004825141664934245,0.0013231898,-0.000917124,-0.008168309,15.594284,-1.0,0.6801872,0.7283644,0.72887355,0.72832084,0.728405
20.3,5.2349224,0.16981454,-2.4580047,-0.02777632,0.00047692156,0.0025535794,-0.026002496,-0.013328514,0.002020504,-0.000639712101526881,0.0015016294623903395,0.004492592554415955,0.0007060885,-0.0013181239,-0.007991339,15.5882845,-1.0,0.67685413,0.7286386,0.72861546,0.7281144,0.72846967
20.400000000000002,5.236025,0.1715961,-2.4571471,-0.028476464,7.692297e-05,0.002260604,-0.025146395,-0.011949627,0.0044843177,-0.0005649390579503548,0.0012958950898516125,0.004199115711931717,4.067469e-05,-0.0025154303,-0.007074471,15.5882845,-1.0,0.67685413,0.72867113,0.72852653,0.7285175,0.7279394
20.5,5.237055,0.17317101,-2.45683,-0.029015267,-0.00059625,0.0020822294,-0.023675008,-0.011636695,0.005315523,-0.0005121314633447638,0.0010813636642946723,0.003953990718333147,0.0005555345,-0.001541542,-0.006315558,15.5882845,-1.0,0.67685413,0.7285369,0.7285574,0.72823596,0.72823226
20.6,5.2385917,0.1743903,-2.4561217,-0.029088823,-0.0017044267,0.0020539225,-0.027557604,-0.01896072,4.796311e-05,-0.00043532782966640215,0.0008658929414763339,0.0036641117911968084,0.0001972701,-0.0006460607,-0.0057452046,15.582285,-1.0,0.67352104,0.7283523,0.7289804,0.72830766,0.72801775
20.700000000000003,5.240535,0.17488609,-2.4553847,-0.028677264,-0.0031306944,0.0020476049,-0.025610583,-0.011834621,-0.0046109776,-0.00027361804635658886,0.0006832509932414709,0.003445813470205817,0.0030495797,-0.000902207,-0.0059779547,15.576285,-1.0,0.67018795,0.7289186,0.72842926,0.72807515,0.7283641
20.8,5.2423916,0.17438667,-2.4547176,-0.027828237,-0.0048185005,0.0020278052,-0.017985461,-0.01612679,-0.0048736106,-0.00010507058982249565,0.000586150397936812,0.0032858431389952178,0.002241952,0.0006640653,-0.0052453508,15.576285,-1.0,0.67018795,0.72829515,0.72884303,0.72833115,0.72840005
20.900000000000002,5.243948,0.17318128,-2.453179,-0.027510416,-0.0066164234,0.0024853947,-0.021275878,-0.006267949,0.0007101334,0.00015681653360626152,0.0005840585962649602,0.003109514158750711,0.0038515555,0.0009371443,-0.0048389356,15.570286,-1.0,0.66685486,0.72885287,0.72860956,0.7282163,0.72877955
21.0,5.2444115,0.1717287,-2.4518802,-0.027806433,-0.007853128,0.0025253305,-0.018894384,0.0034950958,-0.0019110738,0.0004425632897375863,0.0005665124451727934,0.002971691447250149,0.003711984,0.0006088907,-0.0044360496,15.570286,-1.0,0.66685486,0.7285643,0.7289179,0.72830474,0.7289467
21.1,5.2437754,0.17037445,-2.4504852,-0.028937068,-0.008583122,0.0024516352,-0.01391352,-0.0022705966,-0.0010165385,0.0007077857939032691,0.0004949209456633222,0.002839418369968653,0.0029593704,-0.0014348088,-0.005337746,15.564286,-1.0,0.66352177,0.72898495,0.728572,0.72866833,0.72852695
21.200000000000003,5.2419467,0.16955538,-2.4503193,-0.03068523,-0.008266083,0.0020121764,-0.01523892,0.00669018,-0.009335111,0.0009375920666515558,0.0002957230980508863,0.0028089183160499615,0.0022156255,-0.0031445648,-0.0028728324,15.564286,-1.0,0.66352177,0.72892195,0.7283047,0.72851795,0.72866553
21.3,5.239223,0.16894862,-2.4508264,-0.032490022,-0.0074983872,0.0014821005,-0.0164791,0.010095928,-0.0066570933,0.0010226428679824878,-1.0226673123164919e-05,0.002792515658711609,-0.0003762447,-0.0037099868,-0.003750473,15.558287,-1.0,0.6601887,0.72828263,0.7286479,0.7285164,0.72851187
21.400000000000002,5.2370205,0.16851647,-2.451529,-0.033051968,-0.0068651144,0.0011276605,-0.009855104,0.0023729892,-0.0013238749,0.0009957324273064006,-0.00041076849571934746,0.0027719607975557107,-0.00028216452,-0.004552917,-0.0038914082,15.558287,-1.0,0.6601887,0.72869444,0.7280315,0.72859615,0.72823113
21.5,5.235205,0.16793068,-2.4526625,-0.033154253,-0.0064116823,0.0009133092,-0.011877754,-0.0029215273,-0.0030896624,0.0009167417273977549,-0.0007433826311422849,0.002733106404110994,-0.000741014,-0.0023570063,-0.004008117,15.558287,-1.0,0.6601887,0.7281821,0.72826195,0.72843844,0.7284736
21.6,5.2338123,0.16730228,-2.454408,-0.032708846,-0.0061207395,0.00049679884,-0.005170226,0.005598421,0.0026789492,0.0008672705255376315,-0.0009579147580517976,0.002637514673175763,-0.0011767339,-0.0017606602,-0.0035749462,15.552287,-1.0,0.6568556,0.72812927,0.72807956,0.7287016,0.72799456
21.700000000000003,5.2327113,0.16654243,-2.4564009,-0.031450793,-0.006029469,0.00031352104,-0.0025024372,-0.0033963546,0.0036349518,0.0008175933401361196,-0.0010793950599847803,0.0024644446310607806,0.00021728841,-0.0016722146,-0.0030897309,15.546288,-1.0,0.6535225,0.7286596,0.72753936,0.72869,0.72782624
21.8,5.231737,0.16582392,-2.45832,-0.030202705,-0.006165195,0.000339219,-0.0054180124,-0.0025213014,-0.0012661329,0.0007849368943280861,-0.0010674838207027338,0.0022333224302212374,0.0011879867,0.0017023375,-0.003882326,15.546288,-1.0,0.6535225,0.7282609,0.7281424,0.7277549,0.72860616
21.900000000000002,5.230483,0.16494739,-2.4602199,-0.02932337,-0.006245869,0.00034548363,-0.0048682946,0.0058608325,0.0063912007,0.0007934641838000317,-0.0010076324879377935,0.0019959581893714265,0.00060829293,0.00055383274,-0.0035822934,15.540288,-1.0,0.6501894,0.72837186,0.7281698,0.7282052,0.7280096
22.0,5.229132,0.16376072,-2.4616086,-0.028890107,-0.0068857563,0.00050849805,-0.011832764,-0.0018207153,0.0034561378,0.000805128510770814,-0.0009340161891012757,0.0017411243758136345,0.0012724705,0.00026396842,-0.0033955427,15.540288,-1.0,0.6501894,0.72862035,0.7281582,0.7280754,0.7281536
22.1,5.227248,0.1621113,-2.4623508,-0.028558964,-0.0076521533,0.00072205765,-0.0013847861,0.0051993937,-0.005863141,0.0008862001762370912,-0.0009359882203917784,0.0015071007068680226,0.0021965872,0.0005607377,-0.0029134918,15.534288,-1.0,0.6468563,0.72862476,0.7284327,0.72790396,0.72836864
22.200000000000003,5.225303,0.16058807,-2.4622693,-0.028308026,-0.007987924,0.001309146,-0.004239778,0.012350317,0.002538785,0.001009780215448928,-0.0009774322934640565,0.0013080522525850435,0.0018819248,-0.0007441866,-0.0022356734,15.534288,-1.0,0.6468563,0.7289561,0.728575,0.7283071,0.72820807
22.3,5.223049,0.15909651,-2.4616156,-0.028133856,-0.008183192,0.0014578395,-0.0046526482,0.0063179946,-0.013328622,0.0011235512376675375,-0.001006381967330734,0.0011905566895078126,0.0011765673,-0.00015185021,-0.0020163087,15.528289,-1.0,0.6435232,0.7288551,0.7288545,0.7283586,0.7283145
22.400000000000002,5.2206516,0.15804774,-2.461046,-0.027953815,-0.0078119226,0.0013710518,0.0058573685,0.005288778,-0.008526723,0.0012160933361644042,-0.0010886993417374433,0.001146902862253228,0.0005012693,-0.0013398074,-0.0023682297,15.528289,-1.0,0.6435232,0.72899735,0.72858906,0.7285227,0.7281839
22.5,5.217962,0.15789472,-2.460411,-0.02813304,-0.006670487,0.001419885,-0.0019750772,0.012468552,-0.005387235,0.0012572705168868781,-0.0011799057748472822,0.0012180468677115443,0.0002699768,-0.0005628538,-0.0016131047,15.528289,-1.0,0.6435232,0.7287661,0.7287389,0.7282036,0.7287206
22.6,5.2153006,0.15791078,-2.4601758,-0.02776895,-0.005510665,0.0012011264,0.004400392,0.010598225,-0.012533738,0.0011679860196251715,-0.001282068781672471,0.00133869408468196,-0.001264765,0.00046847493,-0.0013267752,15.522289,-1.0,0.6401901,0.7282926,0.7288557,0.7283201,0.7287867
22.700000000000003,5.21251,0.15796098,-2.4606497,-0.027330982,-0.0047079735,0.0007905378,0.0052988324,0.0070522567,-0.005106907,0.0010171118612554697,-0.0013519989787701765,0.001426667882431297,-0.0019007368,-0.00081885123,-0.0011008772,15.51629,-1.0,0.63685703,0.7284775,0.72826684,0.7287173,0.7284235
22.8,5.2099423,0.15830372,-2.4609737,-0.026981184,-0.0038220554,0.00060807954,0.0031198931,0.00484835,-0.0010547227,0.000869340926283503,-0.0013994074793342976,0.0014901883880580722,-0.0011329183,0.00081658934,-0.00088672095,15.51629,-1.0,0.63685703,0.7281262,0.7283719,0.72822905,0.7289269
22.900000000000002,5.20791,0.15849824,-2.461149,-0.025830159,-0.0036035392,0.0006003225,0.0064838873,-0.000949667,-0.0043502073,0.0007366842747058685,-0.0014566776949369315,0.001503582510771115,-0.0012918318,-0.0002665965,-0.0020702768,15.51029,-1.0,0.63352394,0.7282729,0.72811997,0.7287559,0.72856206
23.0,5.206681,0.15796241,-2.4616368,-0.023854362,-0.0041550747,0.0006742262,0.0009346172,0.0011442859,-0.0029345972,0.0006351156564344355,-0.0014379135325205555,0.0013319564103601484,-0.00019441932,0.00091033644,-0.0012477238,15.51029,-1.0,0.63352394,0.7285859,0.72795755,0.728874,0.7283866
23.1,5.205589,0.15646201,-2.4627285,-0.022128338,-0.005481449,0.00046757795,-0.0006168425,0.006262641,-0.0017103738,0.0006674160110365706,-0.001301759114839615,0.001030018955215891,0.0019377356,0.0028664214,-0.0011058867,15.504291,-1.0,0.63019085,0.72839344,0.72826266,0.72825384,0.72872627
23.200000000000003,5.204251,0.15416098,-2.4641423,-0.020895498,-0.0074278247,9.7829354e-05,-0.007051483,-0.00034652813,0.0025425104,0.0007910839221875356,-0.001137981652782387,0.0005724020494028009,0.0030141948,0.0020920637,-0.0013993843,15.504291,-1.0,0.63019085,0.72848976,0.7284695,0.7281916,0.7280276
23.3,5.2022924,0.15120953,-2.4653625,-0.020265615,-0.0094683515,-7.4677e-05,-0.0035939422,-0.0027840459,0.0014789401,0.001065357288902963,-0.0009508786806725295,0.00015628555010866434,0.0052377433,0.000969433,-0.0014201244,15.498291,-1.0,0.62685776,0.7293208,0.7279971,0.72774744,0.7279378
23.400000000000002,5.2001224,0.14823113,-2.4664927,-0.020123815,-0.010587937,-0.00021344822,-0.0014480783,0.00934354,0.006297137,0.001400853125915664,-0.0008547202725569377,-5.474345993114621e-05,0.003628667,0.0018508708,-0.00037531633,15.498291,-1.0,0.62685776,0.72832185,0.72896355,0.72760296,0.7279115
23.5,5.197849,0.14503609,-2.466727,-0.020249445,-0.011360925,0.00024340562,-0.0061380626,0.00777133,0.00063376495,0.001681125422660504,-0.0008541181965172492,-0.0001722299357404462,0.0032844539,-0.00031695215,8.438993e-05,15.498291,-1.0,0.62685776,0.7289874,0.728594,0.7278438,0.7279158
23.6,5.195515,0.1422523,-2.4665294,-0.020056454,-0.011454033,0.00061776413,0.0036765346,0.013910218,0.0010989605,0.0019427514366495951,-0.0008918820529102623,-0.00010762422156148441,0.0035597275,-0.00011953109,0.0020922853,15.492291,-1.0,0.62352467,0.7289492,0.72861624,0.7278719,0.72837174
23.700000000000003,5.1937656,0.14096493,-2.4659405,-0.019703912,-0.009712358,0.0009867746,-0.0087379925,0.024150334,-0.003531575,0.002079969895906131,-0.0009447176453484227,0.00014614141175729162,-7.0573165e-05,0.00043576743,0.0008604062,15.486292,-1.0,0.6201916,0.7285647,0.7289584,0.7281114,0.7286657
23.8,5.1928444,0.14043476,-2.4658482,-0.01888309,-0.00767911,0.0005048979,0.006922637,0.0151241645,-0.0037010757,0.0020265967238861137,-0.0009873476759351336,0.0005227747770658448,-0.0014072236,0.00049305,0.0018734667,15.486292,-1.0,0.6201916,0.72862196,0.7281463,0.72823733,0.7287553
23.900000000000002,5.192049,0.13973321,-2.4660895,-0.018250419,-0.006149277,0.00036471835,-0.0013193483,0.009852748,-0.0014686956,0.0017932250666103113,-0.0009685500956002305,0.0008544047048164287,-0.0036701646,0.0016342202,0.0012058383,15.480292,-1.0,0.6168585,0.72783035,0.7283885,0.728687,0.72871345
24.0,5.1911736,0.13874166,-2.4660826,-0.01780661,-0.005520001,0.0005624156,-0.009808616,0.007192904,-0.0010379589,0.0015172937464642885,-0.0009276631877219116,0.0010337574362783552,-0.0015438736,-0.00073232705,0.0008960499,15.480292,-1.0,0.6168585,0.7286731,0.72748446,0.72909725,0.7286272
24.1,5.1901665,0.1372968,-2.4664664,-0.01761927,-0.0054402766,0.00027860177,-0.001793251,0.0025513493,0.001606997,0.0013429089252636687,-0.0008902260306117948,0.0010321403957608312,-0.0017207675,0.0009673648,0.00015716578,15.474293,-1.0,0.6135254,0.7276596,0.7284579,0.72883123,0.72861475
24.200000000000003,5.189163,0.13618158,-2.467217,-0.017543389,-0.005505117,0.00018034459,-0.0029232004,0.017750159,-0.0021713783,0.001284767446376624,-0.0009162435884877805,0.0009502814129084576,-0.00032686486,-0.00047950583,-0.0011562197,15.474293,-1.0,0.6135254,0.7281463,0.7281314,0.72885257,0.72833997
24.3,5.187563,0.13517863,-2.468271,-0.018115243,-0.005733455,-0.00040894715,-0.006632366,0.004884714,0.0035087576,0.0012578854618517901,-0.0009270559146076063,0.0008809213097665987,1.8686344e-05,-0.0016393034,-0.001490028,15.468293,-1.0,0.6101923,0.7282241,0.7277815,0.7287411,0.7280403
24.400000000000002,5.185164,0.13435139,-2.469676,-0.019360775,-0.0055657,-0.0006547623,-0.0034160304,0.008507842,0.009351875,0.0012866525889104275,-0.0010131512222975169,0.0008333540487462877,0.0009575093,-0.0024035284,-0.0010081099,15.468293,-1.0,0.6101923,0.72827995,0.7277124,0.7282906,0.7281683
24.5,5.181628,0.13323694,-2.4711354,-0.021313308,-0.005699366,-0.0006758179,0.0008233882,0.005288201,-0.0012652016,0.001291820803965218,-0.0012055943045830898,0.0007982534630529076,-0.0002422333,-0.0028540548,-0.0007582131,15.468293,-1.0,0.6101923,0.7277513,0.72831005,0.7280387,0.7282968
24.6,5.1767697,0.13229573,-2.4726324,-0.023657482,-0.0053791343,-0.0005965568,0.0028865146,0.008953283,0.0031664965,0.0013307626968840007,-0.00150427746511179,0.0008075650408820923,-0.00021797058,-0.004732575,-0.00107535,15.462294,-1.0,0.6068592,0.7280477,0.7280818,0.72838783,0.72793984
24.700000000000003,5.171131,0.13199472,-2.4737225,-0.025738826,-0.004432977,-3.4484936e-05,0.006388427,0.0106376335,0.0076992433,0.0013393284076532405,-0.001934238150494761,0.0008844788755909162,-0.0008544664,-0.0059389384,-0.0012211598,15.456294,-1.0,0.6035261,0.72838545,0.72801256,0.728628,0.72801083
24.8,5.1660824,0.13205619,-2.4742434,-0.026741657,-0.0034157932,0.00026512484,0.01224264,0.009407975,0.005959067,0.0012934933045268624,-0.0023676127595512434,0.0009855965724909137,-0.0010310725,-0.0038552808,-0.0011581685,15.456294,-1.0,0.6035261,0.72816324,0.728359,0.72829145,0.72864705
24.900000000000002,5.160692,0.1320024,-2.4746993,-0.027311064,-0.0025117917,0.00036189493,0.0152015975,0.004384126,-0.004729721,0.0011421610756605436,-0.002729120057882752,0.0010085452214896088,-0.002469028,-0.0032531365,-0.0018448184,15.4502945,-1.0,0.600193,0.72807175,0.72856086,0.7286206,0.7283761
25.0,5.1556325,0.13184589,-2.4748673,-0.027451374,-0.00229697,0.00047918886,0.014181007,0.005653404,-0.0071064564,0.0010156220601686952,-0.002998023973035442,0.001020900779396677,0.00014207358,-0.0030467052,-0.0012047604,15.4502945,-1.0,0.600193,0.72882223,0.7277651,0.7283729,0.7288546
25.1,5.1503596,0.13096721,-2.4757755,-0.027118461,-0.0029262786,0.0004579471,0.01884032,-0.0013034586,-0.003634486,0.0009273580008921922,-0.003194456089373308,0.0008720040347393903,0.0011906284,-0.0017929558,-0.001369676,15.444295,-1.0,0.59685993,0.72878456,0.72796404,0.7283364,0.7287181
25.200000000000003,5.1458488,0.1302697,-2.4764183,-0.026811669,-0.0031315517,0.00056234485,0.021753937,0.011720705,0.010402407,0.0009328180126947073,-0.0033282329514256856,0.0006605322402925181,0.00047589754,-0.0011051259,-0.0022472616,15.444295,-1.0,0.59685993,0.7284338,0.7286324,0.728453,0.72839576
25.3,5.1413016,0.13002922,-2.4769928,-0.025789784,-0.0028669366,0.0005110116,0.026254669,0.009379157,-0.007189344,0.0009998272454052916,-0.0033635050823355374,0.0004919038106702169,0.0017611434,0.0009571698,-0.002177024,15.438295,-1.0,0.59352684,0.72879785,0.72842485,0.7278016,0.7289223
25.400000000000002,5.137361,0.13046429,-2.477987,-0.024870064,-0.0022517801,0.0002674492,0.0170238,0.0033898717,-0.0040405425,0.0009992026062906577,-0.0033773697978881335,0.00041038047086153754,0.000107690765,0.0012464306,-0.0017534362,15.438295,-1.0,0.59352684,0.72852904,0.7285848,0.72797257,0.72853047
25.5,5.133878,0.13142098,-2.4795213,-0.02379685,-0.0013830051,0.00021700407,0.016602129,0.005935893,0.0022249294,0.0009460060799676244,-0.0033196109736683614,0.00040959916096854857,-0.002282291,0.0006647359,-0.0016792371,15.438295,-1.0,0.59352684,0.72825253,0.7287705,0.728456,0.72808754
25.6,5.1308155,0.13230656,-2.4812322,-0.022131745,-0.0007214394,-0.0002286577,0.021308001,0.00020940819,0.0013820826,0.0008683406524560571,-0.0032473598346838967,0.00037783038946447186,-0.0010375946,0.00056633167,-0.0014384006,15.432296,-1.0,0.59019375,0.72850674,0.7282911,0.72837377,0.72787094
25.700000000000003,5.1281714,0.1326431,-2.4834297,-0.020672437,-0.00091657083,-0.0005500097,0.010549871,0.0034751007,0.0005997717,0.0007518981211938142,-0.003108778610912464,0.00034260825025970987,-0.0010901047,0.0018807523,-0.0009101844,15.426296,-1.0,0.58686066,0.7281377,0.72837657,0.7282463,0.7279251
25.8,5.1258087,0.13224745,-2.4852495,-0.019514851,-0.0013622292,-0.0008171916,0.016528457,-0.0011351077,0.0075683924,0.0006796070245060139,-0.0029447175892579665,0.00027126967950394696,0.0008843704,0.002198275,1.491225e-05,15.426296,-1.0,0.58686066,0.7282984,0.7279868,0.727784,0.7282192
25.900000000000002,5.1229444,0.13131988,-2.4869888,-0.019007396,-0.001903527,-0.0006021496,0.015507642,-0.0024358071,0.0012461095,0.0007191142311310878,-0.00280594983535006,0.00021705581924785712,0.0014052991,0.00028614927,4.761874e-05,15.420297,-1.0,0.58352757,0.7285393,0.7278252,0.72797555,0.728198
26.0,5.1205215,0.13026549,-2.4888353,-0.018542327,-0.002697469,-0.00046708182,0.016495937,-0.0038004029,0.0027455387,0.0007791210635607799,-0.0027434681532080975,0.00015577802308468138,0.0010899665,0.00028861227,-0.000643931,15.420297,-1.0,0.58352757,0.7281064,0.7283642,0.7280885,0.72807455
26.1,5.1184583,0.12891941,-2.491115,-0.01754019,-0.0036764564,-0.0006987731,0.019390883,0.0018681507,0.009730457,0.0009001188977789484,-0.0027020885139861766,0.00013294589188358005,0.0016582723,0.00022213622,0.00020379701,15.414297,-1.0,0.5801945,0.72822255,0.727997,0.7282155,0.72785383
26.200000000000003,5.1170526,0.12767068,-2.4929042,-0.016430058,-0.0038992972,-0.0007202519,0.015501459,0.005441916,0.008252914,0.0010556277014180655,-0.002647389008656351,0.00012974748076699418,0.0012544333,0.0009982373,0.0002719837,15.414297,-1.0,0.5801945,0.7279143,0.7282308,0.7281074,0.7280069
26.3,5.1161265,0.12642954,-2.4948828,-0.015099721,-0.0040285876,-0.0005016548,0.008309278,0.0040697176,0.006849877,0.001174038249211773,-0.0025599632438407915,0.00015737421653769657,0.0021043543,-0.00023942237,0.0010520177,15.408298,-1.0,0.5768614,0.72872543,0.7274476,0.7282885,0.7279971
26.400000000000002,5.116647,0.12542924,-2.4965916,-0.013246453,-0.0038783792,-0.0004536181,0.0037450835,0.0073969266,0.002895016,0.0012364789553637905,-0.0024496565923916897,0.00014238311691998015,0.0006889828,0.0023862673,1.0979296e-05,15.408298,-1.0,0.5768614,0.7281229,0.7281768,0.7279874,0.7282169
26.5,5.118112,0.124560595,-2.4981873,-0.010905771,-0.0035804664,-0.00022811646,0.011253525,0.009218671,0.009028706,0.0012771151337186953,-0.002234722966181822,0.00013474049288294626,-0.00013569632,0.003785434,-0.0001464248,15.408298,-1.0,0.5768614,0.72808856,0.72835106,0.72816813,0.72813654
26.6,5.119757,0.12376324,-2.500152,-0.009050274,-0.0030623956,-0.00020694398,1.2141753e-05,0.0107129915,0.005956273,0.0012901745476968866,-0.0019436080638135017,0.00018831594812738036,0.0002408298,0.0035114887,-0.00037473947,15.402298,-1.0,0.5735283,0.72822654,0.7280817,0.7282864,0.7281637
26.700000000000003,5.120798,0.12399268,-2.5017967,-0.008017072,-0.0014694256,-0.00046827618,0.00821663,0.0055318708,0.0025145707,0.001236414750335963,-0.0016427201011637105,0.00026322462824294866,-0.00059557095,0.0027243278,-0.0012076407,15.396298,-1.0,0.5701952,0.72829854,0.7278658,0.7279276,0.72836167
26.8,5.121284,0.124656945,-2.5033803,-0.007821005,-1.9228668e-05,-0.00033317786,-0.0006641521,0.0017041985,0.011008232,0.0010557516181003126,-0.0014365030778928402,0.0003519316652238161,-0.002314974,0.000408337,-0.00062721333,15.396298,-1.0,0.5701952,0.7282546,0.7279466,0.7282786,0.7280852
26.900000000000002,5.12206,0.12579365,-2.5053928,-0.0071225716,0.0013858642,-0.00019401559,0.0005189799,0.0028988146,0.008542555,0.0008372461163271,-0.001324570154992384,0.00043378200041790547,-0.0020969878,0.0025362126,1.9537409e-05,15.390299,-1.0,0.5668621,0.72788846,0.72830415,0.72776556,0.7287272
27.0,5.1226754,0.12729342,-2.5072675,-0.0067023193,0.0025320654,-0.0001819079,0.002807445,-0.004308955,0.0056503336,0.0006124741155496992,-0.0012680073340991505,0.0005084223412101216,-0.0037515117,0.00047172292,-0.00054586964,15.390299,-1.0,0.5668621,0.7279816,0.7281645,0.72858524,0.7279812
27.1,5.1228595,0.12861131,-2.5093527,-0.0064248815,0.0039399737,-0.015731346,-0.0022285643,0.0473494,-0.25879124,0.009137509294997738,-0.00121169757443719,0.0005619358807062661,0.33445072,0.00083204336,-0.0006813611,15.384299,-1.0,0.563529,0.72291124,0.74993503,0.7498597,0.72357404
27.200000000000003,5.12235,0.13041423,-2.5131435,-0.006486429,0.034780655,-0.03288458,0.0028380437,0.5638772,-0.07357029,0.064860957344634,-0.0012200026069886859,0.0005762729715107459,0.5867105,-0.0006924535,-0.0016426395,15.384299,-1.0,0.563529,0.7369544,0.72110885,0.721639,0.73703724
27.3,5.121227,0.13864322,-2.518478,-0.0069225184,0.12360149,-0.031150142,0.0065528536,1.049976,0.07762387,0.1111297848006743,-0.001252364022359061,0.0005473485724517112,0.3436872,-0.0017474792,-0.0009139564,15.3783,-1.0,0.5601959,0.73399234,0.7189548,0.7196159,0.7337275
27.400000000000002,5.1197324,0.15741575,-2.5227218,-0.007823913,0.2370088,-0.021396194,-0.0021685641,1.240187,0.11567818,0.1319109879773935,-0.0013378239175496813,0.0005935892966668741,0.107827805,-0.0016667414,-0.0013363083,15.3783,-1.0,0.5601959,0.7315028,0.72164595,0.7220554,0.73148674
27.5,5.1176243,0.19002427,-2.525586,-0.009191202,0.36143914,-0.010753632,0.007762426,1.2741144,0.10670116,0.13385476115480233,-0.001495798740824738,0.000838987050244397,-0.042249795,-0.0034628105,-0.0012677733,15.3783,-1.0,0.5601959,0.7297313,0.72552097,0.7261012,0.7295318
27.6,5.1156015,0.24122262,-2.5269313,-0.010449439,0.4940697,-0.0020116235,-0.00094522326,1.1752199,0.06594229,0.12483445591759586,-0.0017265147406785703,0.001246705284146484,-0.12229507,-0.00394163,-0.0016314206,15.3723,-1.0,0.55686283,0.729464,0.72743255,0.7284424,0.72959477
27.700000000000003,5.114334,0.30744892,-2.5270343,-0.010471364,0.61465985,0.0033046016,0.0031118218,1.0192801,0.030837951,0.11055661241407784,-0.002017453078584149,0.0014669536633393036,-0.15600446,-0.0030253557,-0.0023069312,15.366301,-1.0,0.55352974,0.7283786,0.7295247,0.7305979,0.72867364
27.8,5.113457,0.37982687,-2.526123,-0.010047402,0.71123326,0.005918904,0.0044533885,0.85600346,0.0062417234,0.09462022729983174,-0.0022250998390409595,0.0015165454678966388,-0.1623235,-0.0020849088,-0.0021466063,15.366301,-1.0,0.55352974,0.7281166,0.7302317,0.73173934,0.7281243
27.900000000000002,5.1129155,0.46759042,-2.5240595,-0.0088970605,0.7982661,0.0074461224,0.0033066142,0.6899253,0.004830304,0.07908781775854343,-0.0022934248590689953,0.0013426140751058965,-0.1513495,-0.00063074,-0.0034248538,15.360301,-1.0,0.55019665,0.7278658,0.7309227,0.73241913,0.72749424
28.0,5.11362,0.555224,-2.5218155,-0.0066608144,0.86319697,0.007270924,0.017628266,0.54787385,-0.020084435,0.06514074086375833,-0.0023053510525402566,0.0008406328831554457,-0.13201785,0.00011485246,-0.002990616,15.360301,-1.0,0.55019665,0.7281898,0.7306236,0.73205954,0.7271597
28.1,5.11563,0.65502465,-2.519365,-0.0030694425,0.9179745,0.0069734054,0.012280266,0.4175109,-0.011727213,0.053207794097247026,-0.0020764248214320113,8.599688424564798e-07,-0.11104215,0.003757137,-0.0035278688,15.354301,-1.0,0.54686356,0.72756946,0.73164487,0.73206663,0.7262479
28.200000000000003,5.1190147,0.74992937,-2.5172772,0.0009373154,0.9562966,0.006028781,-0.002323275,0.3232469,-0.015690455,0.043414790600927,-0.0016381042775364659,-0.0011739980180384894,-0.088300586,0.0061539044,-0.0028801379,15.354301,-1.0,0.54686356,0.72784525,0.73163897,0.73115355,0.72576004
28.3,5.1239595,0.85423785,-2.5151834,0.0054314733,0.9869721,0.0055175796,-0.0022863608,0.23692885,-0.0042533497,0.03567267965292185,-0.0010084103714379231,-0.002506137747228651,-0.06921479,0.007222582,-0.0009922549,15.348302,-1.0,0.54353046,0.728313,0.73200995,0.7307435,0.724818
28.400000000000002,5.1293335,0.9505342,-2.513195,0.009239775,1.0062566,0.005026528,0.0004197703,0.1716128,-0.013197306,0.029724893692260154,-0.0002696478217524228,-0.0036875764462140225,-0.051121272,0.008511129,0.0010170336,15.348302,-1.0,0.54353046,0.7286088,0.73246974,0.72992027,0.72453046
28.5,5.1348777,1.0465027,-2.511511,0.011828335,1.019337,0.0046326383,-0.008114708,0.12974036,-0.013233627,0.0253555084936336,0.00047811918949722075,-0.004466602065745414,-0.035590786,0.0075810296,0.0037269199,15.348302,-1.0,0.54353046,0.7290569,0.73236424,0.72943616,0.72441375
28.6,5.1410217,1.1503092,-2.5103536,0.013821367,1.0286434,0.0037302827,-0.020885654,0.10620105,-0.006021,0.022331982841103923,0.0011184766407312497,-0.004779292686402847,-0.023735765,0.0069800247,0.006179123,15.342302,-1.0,0.5401974,0.72856843,0.7322552,0.7290464,0.7245508
28.700000000000003,5.1472373,1.2538546,-2.5095532,0.014828316,1.0346307,0.0029774422,-0.023499371,0.08689474,-0.007706694,0.020232474017684982,0.0016085522053019747,-0.004677595369056858,-0.015984226,0.0051875575,0.009755317,15.336303,-1.0,0.5368633,0.72832245,0.7315574,0.7293922,0.7244998
28.8,5.1530414,1.3489369,-2.5091321,0.015255566,1.0376577,0.002926469,-0.0325072,0.06255909,0.0015585682,0.018811052540980932,0.0019327524232871087,-0.004304739648272576,-0.0107437605,0.0036976836,0.010483883,15.336303,-1.0,0.5368633,0.7279036,0.73117375,0.7297839,0.72494304
28.900000000000002,5.158877,1.4514378,-2.5089936,0.014811821,1.039453,0.0025868237,-0.026507342,0.05678482,-0.0021546145,0.017889014062551074,0.002135728709437239,-0.003600705136696497,-0.00597788,0.0013195233,0.0118459165,15.330303,-1.0,0.5335312,0.72758394,0.73026544,0.7303427,0.72540194
29.0,5.1635804,1.5460477,-2.5097346,0.013880652,1.0404869,0.001985648,-0.0277892,0.04847576,-0.006712507,0.01733223401320582,0.0022115092104053715,-0.0026840119924900307,-0.0035344737,0.00028464705,0.011425359,15.330303,-1.0,0.5335312,0.72697985,0.7295191,0.73049676,0.7259731
29.1,5.1682878,1.6485199,-2.5109959,0.012575661,1.0412316,0.001628609,-0.030309455,0.044400968,0.0071967947,0.01695766825840601,0.0022090651889007874,-0.0016671306902731658,-0.0011514918,-0.0005666566,0.01073412,15.324304,-1.0,0.53019714,0.7264579,0.7287486,0.730882,0.7265349
29.200000000000003,5.1724353,1.7437747,-2.5119963,0.0112889735,1.0421814,0.0016328102,-0.027777845,0.041847993,0.0054403204,0.01668117631193986,0.0020890451957404224,-0.000799001361477953,-0.0022218167,-0.0009623042,0.008997759,15.324304,-1.0,0.53019714,0.72584885,0.7287138,0.7314616,0.7266919
29.3,5.176815,1.8474722,-2.5127587,0.010217326,1.0432831,0.001936613,-0.034646194,0.038134847,0.003263354,0.01642879641573804,0.001923538489111903,-8.212402194051759e-05,-0.0026400783,-0.0009920244,0.0081303865,15.318304,-1.0,0.526865,0.7256995,0.72852796,0.7319111,0.7269867
29.400000000000002,5.180916,1.9430945,-2.512391,0.009782085,1.0438247,0.002460645,-0.022608403,0.039955825,-0.0012917443,0.01611461915084871,0.0017560152837440373,0.00038034124581270236,-0.0034532503,-0.0016299031,0.005586519,15.318304,-1.0,0.526865,0.72578937,0.72875017,0.7325561,0.72680473
29.5,5.184783,2.0380936,-2.511792,0.009177966,1.0429995,0.0025936752,-0.021405885,0.026979765,0.0017387791,0.015836726116717513,0.0016997946825503762,0.0006414276362563679,-0.0013896658,6.795497e-05,0.0038879127,15.318304,-1.0,0.526865,0.7259772,0.728915,0.7320967,0.7272217
29.6,5.1882887,2.140474,-2.5113652,0.008098163,1.0415657,0.002785667,-0.022754624,0.028176792,-0.0048726792,0.015705357358895975,0.0016307454346949208,0.0007665648802002076,-0.00011001741,-0.0005992339,0.0012099341,15.3123045,-1.0,0.52353096,0.7261695,0.72934264,0.7321994,0.72689956
29.700000000000003,5.191071,2.2427468,-2.511137,0.006436925,1.0399514,0.0025748238,-0.023463853,0.028438857,-0.0062715258,0.01569586669620967,0.0015293842319266478,0.0008059029691052064,0.0016223253,-0.00076419744,0.0005955605,15.306305,-1.0,0.5201988,0.7266073,0.7293428,0.7316531,0.7269511
29.8,5.193602,2.337349,-2.5111933,0.0054635145,1.0390085,0.0023979717,-0.020507377,0.029585239,0.0047776843,0.01578343418575104,0.0013665429064066326,0.0007640551342208226,0.0028460026,-0.0018138828,-0.0014999685,15.306305,-1.0,0.5201988,0.7271251,0.72912043,0.7313866,0.72682804
29.900000000000002,5.1966424,2.4400127,-2.5114431,0.0047523887,1.0381021,0.0020265987,-0.018706322,0.029556,-0.006292015,0.015861709947781424,0.0011994145410503306,0.0006031991228900713,0.0014905614,-0.0019309472,-0.0013976678,15.300305,-1.0,0.5168648,0.72724396,0.7293847,0.7314735,0.7260917
30.0,5.19959,2.5353022,-2.51191,0.004748991,1.0377444,0.001784527,-0.02212427,0.022938212,-0.0045010815,0.015903817299603103,0.0010558985699487937,0.00037136607998852024,0.00037311867,-0.001064831,-0.0016517662,15.300305,-1.0,0.5168648,0.72722125,0.7297851,0.7311565,0.72581214
30.1,5.202558,2.6389723,-2.5124216,0.004828233,1.0376728,0.0012409216,-0.013482639,0.028405126,-0.012118368,0.01591917432125421,0.0010123731658009272,0.0001974698596427532,-4.086105e-06,0.00062135694,-0.0016892708,15.3,-1.0,0.51382256,0.7270361,0.7299155,0.73055434,0.7260375
30.200000000000003,5.204476,2.735631,-2.512856,0.0041868635,1.0384597,0.0010585971,-0.015955497,0.031226756,0.005325302,0.015877221456340053,0.0010261121361468466,5.052401069475376e-05,-0.00049819995,-0.00053781486,-0.00030715665,15.3,-1.0,0.51382256,0.72734624,0.72963053,0.7306917,0.72557366
30.3,5.205513,2.8414152,-2.5135028,0.0030468733,1.0398452,0.0007612548,-0.024218714,0.025807122,0.0022840684,0.01567338526791584,0.0010239746974250383,-7.38877558563724e-05,-0.002100903,-1.9976527e-05,-0.0018789378,15.3,-1.0,0.51132774,0.7270898,0.7298841,0.7301138,0.7258614
30.400000000000002,5.205537,2.939433,-2.5142326,0.0011897564,1.0409658,0.00049921795,-0.011448875,0.022965591,0.0011743977,0.015379320347509962,0.000916826829487227,-0.00013624063313843763,-0.0035971948,-0.003100439,-5.239717e-05,15.3,-1.0,0.51132774,0.72729325,0.7295097,0.7306491,0.7251847
30.5,5.204839,3.03729,-2.515324,-0.0005346213,1.0412228,7.231915e-05,-0.013023872,0.012014337,0.0016391276,0.01503298211616533,0.0006755878375543982,-0.00014986108975046,-0.0031647335,-0.0024071783,-0.0007870055,15.3,-1.0,0.51132774,0.7265827,0.7299246,0.730205,0.72543424
30.6,5.203977,3.1435196,-2.5164351,-0.0022012617,1.0412405,0.00016569861,-0.006517697,0.019178245,0.009926035,0.014767924688039537,0.0004020925087620263,-0.00012175503048117686,-0.0011610031,-0.0028908849,-0.00028148634,15.3,-1.0,0.50928307,0.7270327,0.7294143,0.73019403,0.7256116
30.700000000000003,5.2035747,3.2506626,-2.5171003,-0.003138645,1.0417811,0.00016557303,-0.004988906,0.0074557243,-0.0014095566,0.014593914611617324,0.0001367782888369574,-0.00010732699808022878,-0.0017030485,-0.003034122,-1.7336111e-05,15.3,-1.0,0.5076084,0.7270364,0.72940665,0.7305778,0.72527945
30.8,5.2039165,3.3503482,-2.5173438,-0.0028009587,1.0427794,0.00056708325,-0.006967424,0.0104532,0.011244322,0.014393677462779511,-6.962349673874463e-05,-4.583445300573955e-05,-0.002926754,-0.0012551915,-9.640363e-05,15.3,-1.0,0.5076084,0.7269169,0.72960174,0.7307089,0.72549623
30.900000000000002,5.2053046,3.4589796,-2.5172448,-0.0014927492,1.044183,0.00091039564,0.0018660604,0.014563247,0.004849862,0.014146116936589353,-0.0001652105965374041,5.927523369318728e-05,-0.0028011505,-4.0471474e-05,-0.00018676862,15.3,-1.0,0.5062361,0.72723365,0.7293135,0.73078966,0.7257799
31.0,5.2068233,3.5594406,-2.5167403,-0.0002569216,1.0451477,0.00088235945,-0.001149974,0.006871094,-0.006302725,0.013788259215549182,-7.874329841160428e-05,0.00017198226410590012,-0.0035353515,0.0019819709,0.00093164656,15.3,-1.0,0.5062361,0.7269559,0.7295127,0.73075986,0.7259393
31.1,5.208157,3.668394,-2.516427,0.00078989245,1.0458859,0.001127478,0.00016593037,-0.0006844347,-0.00065658236,0.013441151438965836,0.00011679354969396319,0.00022820480221883997,-0.003544891,0.002666355,-0.0014135725,15.3,-1.0,0.5051117,0.72693914,0.7296949,0.73076457,0.72610456
31.200000000000003,5.208663,3.7689602,-2.5162032,0.00078529527,1.0462633,0.0012378936,-0.0085630035,-0.010101975,-0.009065027,0.0131262092538466,0.00031301368900530334,0.00024799328530346397,-0.0030840714,0.0014816641,-0.0005950498,15.3,-1.0,0.5051117,0.7270397,0.7296804,0.7310009,0.7259824
31.3,5.2079024,3.8775218,-2.5163286,-0.0005405462,1.0457348,0.0011014487,-0.0065869093,-0.0010340227,-0.006029382,0.012860550311858199,0.00043131902420394413,0.00021048753856735408,-0.0016343062,0.0010130164,0.00045775235,15.3,-1.0,0.5041895,0.7267157,0.72996783,0.73053414,0.7264429
31.400000000000002,5.206621,3.9771848,-2.5163643,-0.0018939624,1.0451207,0.0009886896,-0.003899164,-0.00789215,-0.0063162292,0.012668115939454197,0.00034619220659273017,0.0001215827765193944,-0.0010379959,-0.0027663982,-0.0015392116,15.3,-1.0,0.5041895,0.7272959,0.72947097,0.7309895,0.7257828
31.5,5.2055697,4.076359,-2.5164955,-0.0028120743,1.0437517,0.000886848,-0.008230479,-0.0026733612,-0.0015357508,0.012534769233804944,0.00015697557624256162,5.8403349509797226e-05,0.00044804867,-0.0035700072,0.00014674247,15.3,-1.0,0.5041895,0.7275389,0.7293001,0.7312043,0.72543633
31.6,5.2046084,4.18342,-2.5166292,-0.003345769,1.0419761,0.00079520326,0.0008535845,-0.008732211,-0.0044093463,0.012527012272680767,-3.6813254167791585e-05,5.6884718251204646e-05,0.00039946995,-0.0020537304,-0.00028607357,15.3,-1.0,0.5034332,0.72727686,0.7295367,0.73091835,0.72569925
31.700000000000003,5.2036843,4.2901254,-2.5168114,-0.0035724025,1.0402343,0.00059215253,0.0010518398,-0.0058513684,0.0015418044,0.012622493159575757,-0.00016044999808159703,5.143412080504382e-05,0.0015552219,-0.0007073986,-0.00079926447,15.3,-1.0,0.50281334,0.72699827,0.7297664,0.73095465,0.7255142
31.8,5.202894,4.388868,-2.5170414,-0.0034532389,1.0392578,0.0005628448,0.008104478,-0.0050008674,-0.006899237,0.012742260726788275,-0.0002340609741022235,7.594920338234032e-05,0.0018303619,-0.00025367195,-3.384935e-05,15.3,-1.0,0.50281334,0.7273641,0.7293189,0.7306981,0.7258533
31.900000000000002,5.201579,4.496004,-2.517824,-0.0037317863,1.0384504,1.6875838e-05,0.006913419,-0.0010376824,0.0041271555,0.012821115522836221,-0.00026848730873572246,7.860768512375026e-05,-2.305484e-05,-0.00068261387,-0.00047479043,15.3,-1.0,0.5023041,0.72686297,0.7294044,0.7309569,0.72540104
32.0,5.199535,4.5946665,-2.518536,-0.0050198617,1.0378014,-0.00010631673,0.0058877207,-0.005068468,0.0003208406,0.012851309995706354,-0.00027618992137802957,-4.155190310797611e-05,0.0013282114,-0.0019642278,-0.0011559103,15.3,-1.0,0.5023041,0.72729135,0.7290187,0.7305139,0.72563213
32.1,5.1966343,4.701149,-2.5197515,-0.0066058617,1.0365087,-0.011833338,0.0129651055,-0.026608933,-0.24377275,0.00686575452713886,-0.00041973149256182456,-0.0002509857891751753,-0.26492625,-0.0026356343,-0.0010307105,15.3,-1.0,0.5023041,0.75386167,0.7182158,0.7190607,0.7524882
32.2,5.193374,4.798599,-2.522447,-0.00841903,1.0094856,-0.028211972,0.009448224,-0.5344745,-0.08215568,-0.04719652410047797,-0.0006438717812974672,-0.0004927224585864974,-0.59718525,-0.0042705243,0.00017560988,15.3,-1.0,0.5018883,0.7214318,0.73733443,0.7382176,0.7195442
32.300000000000004,5.189299,4.8982058,-2.5257583,-0.010271148,0.9231468,-0.02652621,0.006216666,-1.0276347,0.07244944,-0.09566272926183768,-0.0009540670248341567,-0.000642725402577408,-0.3685411,-0.0043029217,0.00057519117,15.3,-1.0,0.5015478,0.7179246,0.7361238,0.73688805,0.7161225
32.4,5.185585,4.9791503,-2.52659,-0.011429538,0.8096377,-0.01650147,0.009042952,-1.2496178,0.10650418,-0.11840628502208535,-0.0012780815917041004,-0.0006738291184646173,-0.12319323,-0.0031975515,0.0005345697,15.3,-1.0,0.5015478,0.7208771,0.73395246,0.73429847,0.7196063
32.5,5.181868,5.0462513,-2.5253687,-0.011926336,0.6838928,-0.006196482,0.016146222,-1.2875105,0.084417865,-0.12146773556481084,-0.0015136219146937818,-0.0005937246136180415,0.03553111,-0.0029053383,0.0014575539,15.3,-1.0,0.5015478,0.72524256,0.73181754,0.73271334,0.7236453
32.6,5.177691,5.1025367,-2.522192,-0.012247514,0.5486376,0.0021507542,0.012428821,-1.1931466,0.053365245,-0.1128953076033682,-0.001676288582500226,-0.0004191163034049115,0.12131277,-0.00026624772,0.0017698522,15.3,-1.0,0.5012684,0.7271176,0.7320114,0.7322476,0.726488
32.7,5.1730814,5.143678,-2.517839,-0.012753978,0.42555428,0.0070466604,0.012885553,-1.0438643,0.024592502,-0.0985995507927345,-0.0017823872660922841,-0.00028187072601556037,0.15768161,-0.001488058,0.0015536217,15.3,-1.0,0.5010395,0.7295918,0.73056024,0.7317991,0.72841704
32.800000000000004,5.16785,5.17053,-2.513498,-0.0137776295,0.32733244,0.008900816,0.013628828,-0.88440865,-4.796311e-05,-0.08247126625715233,-0.0018593959805848575,-0.0003690532252106092,0.16345938,-0.00060954824,0.00043484592,15.3,-1.0,0.5010395,0.7299315,0.73061,0.7313288,0.7293741
32.9,5.161257,5.1892076,-2.5088184,-0.015857598,0.24475047,0.0089329,0.017903216,-0.7238072,-0.018188262,-0.0667791878549383,-0.0019682001416744138,-0.0008318556748641785,0.15288305,-0.002645104,0.0015479425,15.3,-1.0,0.5010395,0.73098785,0.72942346,0.73026204,0.72994304
33.0,5.1525073,5.202382,-2.5043907,-0.019351635,0.17264022,0.008128896,0.0154097825,-0.5613452,-0.025878193,-0.05266106015676971,-0.0022395841976659988,-0.001774382151472115,0.13313442,-0.0047077597,0.0010587835,15.3,-1.0,0.5008526,0.73072267,0.7297641,0.72955644,0.72943306
33.1,5.1428847,5.2103944,-2.5003026,-0.022819081,0.11684943,0.0070203724,0.027079232,-0.43438026,-0.027535016,-0.04065521011621043,-0.0027028523140728684,-0.0029487563601414287,0.11105384,-0.0057209386,0.0024244175,15.3,-1.0,0.5008526,0.73105013,0.72996426,0.7282305,0.729175
33.2,5.133401,5.21477,-2.4962604,-0.025705868,0.07740839,0.006268586,0.029786866,-0.32473668,-0.021443235,-0.03086507310388821,-0.0033002564429774612,-0.004044648490083714,0.088900685,-0.007330896,0.0038003519,15.3,-1.0,0.50069904,0.731515,0.7299637,0.7279776,0.72810525
33.300000000000004,5.122773,5.2169943,-2.4925594,-0.028092284,0.04503827,0.0053958655,0.04230087,-0.2568873,-0.0143907955,-0.023107785589871976,-0.003942196507432054,-0.004888548268898142,0.068279006,-0.0081972955,0.0059024454,15.3,-1.0,0.5005722,0.7315157,0.7302299,0.72772217,0.72734296
33.4,5.112656,5.218034,-2.4896207,-0.029908186,0.02327121,0.0047896416,0.040256944,-0.18796423,-0.01220079,-0.017048302142748054,-0.004511177896591985,-0.005408877441268921,0.05351452,-0.00634171,0.008663117,15.3,-1.0,0.5005722,0.7313668,0.73020524,0.72728515,0.72744477
33.5,5.101652,5.2187877,-2.4875274,-0.03195785,0.0077455286,0.004040723,0.042822104,-0.142408,-0.014747492,-0.012507349396683217,-0.004980346529861571,-0.0057829338350149275,0.03900728,-0.006211314,0.010902714,15.3,-1.0,0.5005722,0.7310405,0.7299944,0.72719395,0.727427
33.6,5.088606,5.2198324,-2.4853683,-0.03455587,-0.0039230287,0.0033833554,0.048344072,-0.1056835,-0.009097624,-0.009158901630496496,-0.005427017552969388,-0.006141378655164471,0.027597077,-0.0070332624,0.012307901,15.3,-1.0,0.50047016,0.7305651,0.72994983,0.72748196,0.72710776
33.7,5.0754766,5.221854,-2.4834354,-0.035972346,-0.011063487,0.003056613,0.05770127,-0.08180868,-0.007131602,-0.006769982021161677,-0.0059385400527566445,-0.00621996879727739,0.018946609,-0.006474396,0.014272924,15.3,-1.0,0.5003853,0.7303361,0.7296775,0.72749746,0.7274252
33.800000000000004,5.063528,5.2247276,-2.482476,-0.03693767,-0.014486663,0.0023774924,0.058943592,-0.06498893,-0.0035045666,-0.005177637924497793,-0.006383603435419694,-0.005916484384938688,0.01029767,-0.005566877,0.016522797,15.3,-1.0,0.5003853,0.72968656,0.72933775,0.7281125,0.72713095
33.9,5.051481,5.2279687,-2.4824045,-0.03750402,-0.01677631,0.0019261907,0.06201889,-0.05338733,0.0057537104,-0.004178680849775758,-0.006756294000793211,-0.00536615302156063,0.0062041287,-0.0051338817,0.016460806,15.3,-1.0,0.5003853,0.72918046,0.72876513,0.72841704,0.72749436
34.0,5.038799,5.231726,-2.4824913,-0.037384238,-0.018464535,0.0015070467,0.06279692,-0.050578535,-0.002949964,-0.0035937184482304893,-0.00707673475323494,-0.0046953084708110165,0.0051331786,-0.004928394,0.016862314,15.3,-1.0,0.50031567,0.72917104,0.72786653,0.72836626,0.7280662
34.1,5.0266123,5.2362432,-2.4824255,-0.036896937,-0.019014994,0.0012849751,0.07310615,-0.04877554,-0.0015003606,-0.0031788976883456417,-0.0072765291841101806,-0.0038407669551595146,0.0033215466,-0.0023892436,0.016356055,15.3,-1.0,0.50031567,0.7281304,0.72787756,0.72859377,0.7287329
34.2,5.016666,5.2409134,-2.4828908,-0.034877315,-0.01878847,0.00094545225,0.06643625,-0.036016542,0.0042566094,-0.002961817151129339,-0.0074317677451022825,-0.0028447806477047526,0.0007648754,-0.0011398726,0.014511539,15.3,-1.0,0.50025845,0.72777736,0.7272488,0.72903365,0.7288845
34.300000000000004,5.0073595,5.2469554,-2.483595,-0.03153105,-0.017763866,0.00070810737,0.06607957,-0.037777808,0.00049313525,-0.0028720052416685562,-0.0073549229113432524,-0.0017831871210090267,-0.0005416051,0.0005363937,0.013394938,15.3,-1.0,0.50021267,0.72760135,0.7266887,0.7295439,0.7289046
34.4,5.000317,5.253139,-2.4841814,-0.027969627,-0.016256778,0.0009329254,0.06043158,-0.03880617,0.006364658,-0.002913076703213293,-0.007106201283409222,-0.0007302463233857225,-0.0010831247,0.0031124435,0.00983225,15.3,-1.0,0.50021267,0.72733176,0.72653353,0.72937244,0.7297693
34.5,4.9950814,5.2592673,-2.4845364,-0.023637444,-0.014961954,0.00088858145,0.058849055,-0.038949057,-0.007206108,-0.003078243335077147,-0.006718383365556731,0.00021667067125765417,-0.00371485,0.0053111403,0.0077847927,15.3,-1.0,0.50021267,0.7265295,0.7270142,0.7299411,0.72951245
34.6,4.9908223,5.265725,-2.4847016,-0.018798657,-0.014126417,0.0010752194,0.06051556,-0.03890659,0.0042328606,-0.003271119830446674,-0.006163943001803434,0.0009852233584987159,-0.0021233356,0.006151158,0.0056837,15.3,-1.0,0.5001745,0.72702664,0.72646886,0.7299701,0.72980154
34.7,4.9867187,5.2719164,-2.4848676,-0.015151542,-0.013749564,0.0011858379,0.044175137,-0.046577908,0.003583729,-0.0034236705861337775,-0.005510722627046059,0.0014323356487684605,-0.0015678004,0.0077741384,0.0023297304,15.3,-1.0,0.5001421,0.72661334,0.72706634,0.7295503,0.7302086
34.800000000000004,4.98279,5.2772913,-2.4850218,-0.012847229,-0.013856679,0.001096856,0.038512126,-0.048148952,-0.0009653158,-0.003494262487095235,-0.0048845354677639185,0.0015391245278421255,-0.0008292477,0.0055362014,0.00045108658,15.3,-1.0,0.5001421,0.72700906,0.72709835,0.7296951,0.7296146
34.9,4.979047,5.2819514,-2.4854913,-0.011051494,-0.014294725,0.00069436035,0.035394404,-0.050250467,0.0017313285,-0.0035352803584710025,-0.004443561927091045,0.0013316528765416559,-0.0015664529,0.0035966001,-0.0016545737,15.3,-1.0,0.5001421,0.7271491,0.727576,0.72929054,0.7289713
35.0,4.9753666,5.285858,-2.4862218,-0.0095875235,-0.015880104,0.00062359683,0.026279641,-0.04203475,-0.006493646,-0.003460252756948375,-0.004113011181734014,0.0009632011594074044,0.00090049376,0.002645085,-0.0029418794,15.3,-1.0,0.50011826,0.72758013,0.7279659,0.72872716,0.7286697
35.1,4.972115,5.2890587,-2.4867916,-0.008195187,-0.017058155,0.0005521624,0.024977837,-0.03797861,0.005614012,-0.0032922090249510923,-0.0038814424365008608,0.000569660107792835,0.0016620192,0.001996147,-0.0034511015,15.3,-1.0,0.50011826,0.7280152,0.7281965,0.72833836,0.7283106
35.2,4.969169,5.2918825,-2.4871988,-0.007245782,-0.018270357,0.001048186,0.022445966,-0.046596438,0.0078058797,-0.003022665176463255,-0.0036832795121211973,0.00018048092415396834,0.0022097263,0.0018273428,-0.0033517242,15.3,-1.0,0.5000963,0.72844243,0.72867095,0.7281074,0.7282974
35.300000000000004,4.965874,5.2945604,-2.4876947,-0.006615555,-0.019144243,0.000910965,0.019267758,-0.035948824,0.0052182,-0.002756156726919516,-0.0035169214036377223,-0.00016765518924260786,0.002805774,9.269329e-06,-0.0018324599,15.3,-1.0,0.50007725,0.72910297,0.7283751,0.7280692,0.72784626
35.4,4.962953,5.297376,-2.4881897,-0.0060028294,-0.01930547,0.0006552552,0.02249977,-0.034278885,-0.0045918855,-0.0025111729134331216,-0.003399464537139099,-0.00042624250309820477,0.002124964,-0.00019500693,-0.0016361396,15.3,-1.0,0.50007725,0.72921324,0.7283653,0.72779876,0.72778064
35.5,4.9599485,5.3003893,-2.4881191,-0.005650205,-0.019014956,0.00087995897,0.021152902,-0.03151582,-0.0020079312,-0.002320274059063245,-0.003333271563490655,-0.0006016260945774998,9.597433e-05,-0.00044466127,-0.0013614919,15.3,-1.0,0.50007725,0.728866,0.7289419,0.72800434,0.72765374
35.6,4.9562464,5.302824,-2.4872026,-0.0055872747,-0.019286172,0.001139573,0.020678146,-0.032654203,-0.0033965332,-0.0022688733500775705,-0.0032599840446454835,-0.0006697849099288434,-0.0008039807,-0.0010127476,0.00082393247,15.3,-1.0,0.50006676,0.729103,0.72874886,0.7284441,0.7275355
35.7,4.9524555,5.303738,-2.4857998,-0.0056790905,-0.020593068,0.0016308994,0.0199751,-0.028008986,-0.00065797934,-0.002208837645681396,-0.003237317965772004,-0.0006623914821299476,0.0012009862,-0.00032932058,0.00049706677,15.3,-1.0,0.50005627,0.72888374,0.72901046,0.72810346,0.72842675
35.800000000000004,4.949548,5.3038087,-2.484488,-0.0055039986,-0.021795101,0.0016732006,0.016669817,-0.020434665,-0.009819864,-0.0020310448500740507,-0.0032946284354191412,-0.0006213732801022183,0.0015452048,-0.0007470739,0.0008230207,15.3,-1.0,0.50005627,0.7286124,0.72922087,0.7285524,0.72825235
35.9,4.947052,5.3031564,-2.4837723,-0.004895019,-0.023590539,0.0014224526,0.019342681,-0.020622605,0.0017723067,-0.0017827335276969208,-0.0033025874449171084,-0.0005081502018201932,0.0025522758,-3.5508565e-05,0.0011741911,15.3,-1.0,0.50005627,0.7286404,0.7287783,0.7286021,0.7284022
36.0,4.9443283,5.3020153,-2.4833808,-0.0043383976,-0.025143253,0.0012150113,0.014882401,-0.017835932,0.0011241062,-0.0014405613226669371,-0.003257478437566289,-0.00040997703936769667,0.0042609475,0.00024777275,0.0006845442,15.3,-1.0,0.5000458,0.7286977,0.72855824,0.7284252,0.7285833
36.1,4.941839,5.3007216,-2.4830315,-0.0038662245,-0.026142469,0.0008605511,0.017028503,-0.0074779866,-0.0046025957,-0.001108158915527702,-0.003205826245822842,-0.00027125277417410144,0.0023524745,0.0002765027,0.0012992363,15.3,-1.0,0.5000458,0.72819203,0.7287143,0.7285596,0.728464
36.2,4.9396253,5.299162,-2.4823933,-0.003753192,-0.02700804,0.0007423351,0.01779474,-0.01232035,-0.0042798924,-0.0007814312562737518,-0.0031257603393322372,-9.170111001758388e-05,0.0032128203,-0.00056986616,0.0016998393,15.3,-1.0,0.5000353,0.7285329,0.72806394,0.72864866,0.7285664
36.300000000000004,4.9375095,5.297353,-2.4825478,-0.0035471537,-0.027552854,0.0005092239,0.020196958,-0.009753939,-0.0063697803,-0.0005188517214245398,-0.0030987702080096163,3.022820104609767e-05,0.002549107,-0.00040342074,0.0018562938,15.3,-1.0,0.5000267,0.7282657,0.7282601,0.7285953,0.7285299
36.4,4.936395,5.2961135,-2.483565,-0.0027562992,-0.027345426,0.00037332845,0.021046303,-6.1253327e-06,0.0017806886,-0.00028844958758907405,-0.003078243622866414,0.00014994582982621497,0.0026591562,-0.00049466064,0.0001910314,15.3,-1.0,0.5000267,0.7285962,0.72772753,0.72842425,0.7286925
36.5,4.93675,5.294782,-2.485256,-0.00092292234,-0.026784388,5.4399738e-05,0.014747509,-0.003599739,0.0037448478,-0.00015769680860098297,-0.0030312156845907854,0.00017330217578483966,0.0011555455,0.001610784,-9.866972e-05,15.3,-1.0,0.5000267,0.7282915,0.7279283,0.7282859,0.7285664
36.6,4.9388323,5.2934747,-2.4870713,0.0017637302,-0.026318217,-0.0001513104,0.012492709,-0.010146153,0.0003292225,-0.00011453534727107684,-0.0028661329061573726,0.00011374234282068827,-3.6388137e-05,0.0021620204,-0.00067455706,15.3,-1.0,0.5000267,0.7283225,0.72791624,0.72869545,0.7278928
36.7,4.94167,5.292772,-2.488784,0.0046101934,-0.025259746,-0.0003294058,0.007136374,-0.0067836177,0.0071502286,-5.423486746393011e-05,-0.002533487262779773,6.188968770607392e-05,0.00040303814,0.005383119,-0.00026554434,15.3,-1.0,0.5000267,0.72798765,0.7281556,0.72782147,0.7286029
36.800000000000004,4.944262,5.2923803,-2.489936,0.006460513,-0.024321632,-0.0002438032,0.007172945,0.00049002195,0.0015445984,-7.64058997660918e-05,-0.0020987892058286933,1.803111477986062e-05,-0.0012898231,0.0052657756,0.00040972864,15.3,-1.0,0.5000267,0.72783124,0.7284329,0.7280843,0.7283293
36.9,4.946652,5.2920847,-2.4912655,0.007911585,-0.023145385,-0.0003469224,0.011430737,-0.00929545,0.0016544944,-0.00013625972547308044,-0.0017065493502118635,-7.091536277490528e-07,-0.001320202,0.0037202195,-0.00028672253,15.3,-1.0,0.5000267,0.72800714,0.72822326,0.72801113,0.7282994
37.0,4.949137,5.2922964,-2.492839,0.008871358,-0.021632012,-0.00018302289,0.0057960614,-0.01322285,0.0078137955,-0.0002220740967620923,-0.0013752562538700756,-1.290927338356929e-05,-0.0019543217,0.00268688,-0.00018989014,15.3,-1.0,0.5000267,0.7280881,0.7282972,0.7281958,0.72813463
37.1,4.951875,5.292456,-2.4947746,0.009582286,-0.020267623,-8.064418e-05,-0.0038423107,-0.004629014,0.0033807007,-0.00036881214062671296,-0.0011182814378935392,-4.5974761527728054e-05,-0.0011936835,0.0018985106,0.00038697012,15.3,-1.0,0.5000267,0.7286204,0.72789514,0.72806835,0.72825336
37.2,4.9542656,5.2919617,-2.4966338,0.009880181,-0.019843014,-2.790289e-05,-0.008856569,-0.010294506,0.004737172,-0.0005332402470169281,-0.0009365361964632755,-6.385745284970952e-05,-0.0021258881,0.0024599596,0.00047148805,15.3,-1.0,0.5000267,0.7277105,0.7287686,0.72800714,0.7284059
37.300000000000004,4.9570355,5.2906575,-2.4986463,0.010558891,-0.019988356,-0.00014263777,-0.0025778834,-0.005827176,0.0011539086,-0.0006011916234649637,-0.0008193594362234271,-0.00011280875210469942,0.00028951673,0.0024590318,0.0010731076,15.3,-1.0,0.5000267,0.7281489,0.7282904,0.7276783,0.7286525
37.4,4.9596453,5.2887697,-2.5006435,0.0109299645,-0.020706253,-0.00018667756,-0.00501349,-0.005347519,0.0079814335,-0.0006048738255211628,-0.0006928458622646065,-0.00018829249995585932,0.00039084704,0.0033891925,-0.0003078484,15.3,-1.0,0.5000267,0.7277586,0.728733,0.72768754,0.72850627
37.5,4.9616346,5.286026,-2.5025508,0.010751559,-0.022020314,-0.0003070478,-0.009384895,-0.006140797,0.007588416,-0.00045404028413157044,-0.0005283772996616877,-0.0002191942360898485,0.0017838638,0.0027333503,-0.00019289009,15.3,-1.0,0.5000267,0.7277472,0.72865784,0.7278559,0.7282647
37.6,4.963516,5.281993,-2.5043476,0.010360209,-0.024254126,1.2004941e-05,-0.016405206,-0.01010911,0.010548159,-0.00022989102233544466,-0.0004563421784864956,-0.00022507048211431403,0.0042242133,0.00025595797,0.00043676322,15.3,-1.0,0.5000267,0.72848856,0.7281016,0.7279649,0.72833395
37.7,4.9654984,5.2767487,-2.505624,0.010047388,-0.026821017,0.00018336331,-0.012988806,0.0017348953,0.0034631228,0.0001235026240521534,-0.00048132011593860326,-0.0002544443605966727,0.004296995,-0.00030309617,0.0006418231,15.3,-1.0,0.5000267,0.72827697,0.7284882,0.72840035,0.72791636
37.800000000000004,4.9676933,5.2713966,-2.5061018,0.010072486,-0.028935121,0.00037311745,-0.013989694,0.0049829986,-0.0005108304,0.0005550466955219006,-0.0005006727830558542,-0.00023018989053652492,0.0053438474,0.00096597,0.00062625663,15.3,-1.0,0.5000267,0.7280862,0.72871405,0.72819066,0.72835326
37.9,4.970268,5.2662487,-2.5061145,0.010184067,-0.03046034,0.0008785047,-0.015662001,0.01106209,0.00030314547,0.0010467932026393225,-0.00048756309566790274,-0.00022192442240544442,0.005496571,0.0009767435,4.277051e-05,15.3,-1.0,0.5000267,0.72848374,0.72860116,0.72837806,0.7285156
38.0,4.972843,5.2613487,-2.506081,0.01006192,-0.031238092,0.0009970418,-0.007149313,0.009242144,-0.004423316,0.0014694942282032,-0.0004545965250864491,-0.00017054877416650667,0.005589091,-4.387394e-05,3.6443016e-05,15.3,-1.0,0.5000267,0.7291038,0.7279593,0.72825634,0.7288585
38.1,4.9754243,5.257556,-2.5056083,0.0102215605,-0.030527854,0.0011815625,-0.009902225,0.012097034,-0.0022193415,0.0018154292621085156,-0.0004276712781192841,-0.00013107116250650965,0.0033809447,0.0002182833,0.00033198588,15.3,-1.0,0.5000267,0.72893745,0.7282216,0.72841084,0.7288734
38.2,4.9783497,5.254724,-2.5050616,0.010720532,-0.029142447,0.0008142325,-0.010904688,0.0123161655,-0.007210299,0.0019754319175611067,-0.0003853738904185585,-0.00013565052983045145,0.00062663446,0.0007890363,0.0009196765,15.3,-1.0,0.5000267,0.7285682,0.72842,0.72849697,0.72860545
38.300000000000004,4.981464,5.252259,-2.504308,0.010803196,-0.02717542,0.00068131223,-0.020964969,0.013778451,-0.0009769573,0.001949949442823779,-0.00031228464730652925,-0.00015538903402176685,-0.0023244733,0.0013187448,6.416965e-05,15.3,-1.0,0.5000267,0.72814524,0.7288127,0.7285704,0.72843355
38.400000000000006,4.9837656,5.2500963,-2.5032961,0.01020048,-0.025166634,0.0004920253,-0.008617484,0.019433253,-0.0008102506,0.0018283987638761335,-0.0002119068634921895,-0.0001318966896711775,-0.002702847,0.0007977204,0.0007777192,15.3,-1.0,0.5000267,0.7282639,0.7286739,0.72850126,0.7283519
38.5,4.985369,5.2478657,-2.5023332,0.009187402,-0.02365196,7.069032e-05,-0.002974559,0.014610297,-0.00025145707,0.0016009618922636307,-0.00019987059852796262,-3.3783404430525675e-05,-0.0036006446,-0.00035388613,-0.0004606598,15.3,-1.0,0.5000267,0.72801447,0.7286017,0.728497,0.72819614
38.6,4.986263,5.245327,-2.5011709,0.0073823705,-0.022667263,0.00028615617,-0.014938589,0.0056329435,-0.002481043,0.001384660072070995,-0.00028448345651149243,0.00010735310565226325,-0.0016523168,-0.0006174073,-0.000566208,15.3,-1.0,0.5000267,0.72796464,0.7286577,0.72825843,0.7286951
38.7,4.986511,5.243231,-2.5004935,0.005419301,-0.021828212,0.00024651177,-0.013269456,0.01126266,-0.0024149192,0.0012649818894233948,-0.0004695704782044524,0.0002454718562326539,-0.00025696252,-0.002726313,0.00030302734,15.3,-1.0,0.5000267,0.7282919,0.72819155,0.7283134,0.72878355
38.800000000000004,4.986577,5.2417636,-2.5005527,0.004269228,-0.02076579,-0.00017524285,-0.0024048178,0.010722049,-0.0018766149,0.001209709528784366,-0.0007223089699256964,0.0003116759529798583,-0.00011170689,-0.0018514593,-0.00030177907,15.3,-1.0,0.5000267,0.72793126,0.7283422,0.7280855,0.7286962
38.900000000000006,4.9862285,5.240357,-2.5006073,0.0034682595,-0.019864107,-0.00019195408,0.0011472208,0.005986288,0.004404224,0.0011145703106891747,-0.0009488670492369028,0.0003501812613084848,-0.00028330542,-0.0017960577,-0.00079827174,15.3,-1.0,0.5000267,0.72831684,0.72787815,0.7280941,0.7286998
39.0,4.9856124,5.2389703,-2.5003924,0.0023361628,-0.019232403,0.00011694473,-0.007826445,0.0011498802,0.0033108515,0.0010370457884700767,-0.0011187872545356612,0.0003659460566412613,-0.0011251834,-0.0037208835,-0.00038621353,15.3,-1.0,0.5000267,0.72857016,0.72780854,0.7289594,0.7280516
39.1,4.984431,5.23729,-2.500169,0.0011872172,-0.01863443,0.00046347486,-0.0021384694,0.0052060247,0.0048321667,0.0009457500473470127,-0.0012869844848955878,0.0003599873683887166,-0.00022088525,-0.0027418337,-0.0014882324,15.3,-1.0,0.5000267,0.72867846,0.7280302,0.72842205,0.7286297
39.2,4.983357,5.235404,-2.5001965,0.00019766239,-0.018666776,0.00045845314,0.0016137686,0.005989354,0.0030780209,0.0009240425638751109,-0.0014553427007954367,0.00035572874460570986,-0.00021995693,-0.0025568216,-0.0014996593,15.3,-1.0,0.5000267,0.7283926,0.7284173,0.7287566,0.7282695
39.300000000000004,4.982527,5.2337203,-2.5004742,-0.00022501433,-0.01830161,0.00048501263,0.005379334,0.005678983,0.0016363336,0.0009619185721520676,-0.0016318576979961123,0.00033924942416096304,0.00041825147,-0.0015253662,-0.0007937299,15.3,-1.0,0.5000267,0.72835964,0.72846204,0.7285011,0.72855544
39.400000000000006,4.98238,5.2324395,-2.5008564,4.493264e-05,-0.017469132,0.00018469553,0.008290179,0.009646869,-0.003238674,0.0009993622830689838,-0.0017653340224670696,0.00026780230092750967,7.565275e-06,-0.0026551695,-0.0015473199,15.3,-1.0,0.5000267,0.7288708,0.72788066,0.7287038,0.728102
39.5,4.9831324,5.2314773,-2.5013428,0.0007211311,-0.016367711,0.00020318574,0.003292863,0.0136804925,-0.00027287749,0.0009533383960058592,-0.0018008722143141008,0.0001601122747241987,-0.0009396367,-0.00026453912,-0.00058467675,15.3,-1.0,0.5000267,0.72862023,0.7282726,0.72839856,0.72829735
39.6,4.98483,5.230247,-2.5014632,0.0017505755,-0.01557501,0.00027444024,0.0007000971,0.0042894497,-0.0015539116,0.0008849177332475419,-0.0017647402396657429,-1.884828581111468e-05,-0.001429952,0.00027524028,-0.0013482948,15.3,-1.0,0.5000267,0.72871643,0.72842294,0.72850144,0.7280445
39.7,4.9867554,5.228729,-2.5006595,0.0031480752,-0.015033019,0.0007251057,0.003044445,0.002197762,-0.0024116596,0.0007861958548188517,-0.0016229899721880126,-0.0001424964988493717,-0.00051812164,0.002527397,-0.00026158264,15.3,-1.0,0.5000267,0.7286148,0.7288344,0.7281849,0.72860366
39.800000000000004,4.988535,5.22754,-2.4999282,0.004060765,-0.014575071,0.0006972662,-0.0019496636,0.0049062343,-0.0011008232,0.000735853832036436,-0.001419668626978545,-0.0002008977476602641,0.0004760253,0.0018271549,-8.649616e-05,15.3,-1.0,0.5000267,0.72900724,0.7283858,0.7283845,0.7284769
39.900000000000006,4.990453,5.2268295,-2.4994626,0.0046012853,-0.014008863,0.00050668954,-0.0039570285,0.0027934527,-0.008570961,0.0007253925236000628,-0.001226156008430799,-0.0002525125923321831,-0.0008307989,0.0023925405,-0.0003440954,15.3,-1.0,0.5000267,0.72841245,0.7289832,0.72833717,0.7284024
40.0,4.9921236,5.226513,-2.4991229,0.0051661115,-0.013003845,0.00045475163,0.00097286457,0.007074169,-0.0023418104,0.000688093774061443,-0.0010708775749288966,-0.00028249290187117406,-0.00023195245,0.0011329924,-7.434064e-06,15.3,-1.0,0.5000267,0.728828,0.7285493,0.72829187,0.72836685
40.1,4.9935594,5.225564,-2.4988177,0.005567897,-0.012885313,7.018859e-05,-0.0019825115,0.0018724692,0.0069704833,0.0005809520357072206,-0.0009425139898069629,-0.0002623667148168484,-0.00044080857,0.0016298442,-0.0001453809,15.3,-1.0,0.5000267,0.7285248,0.7285336,0.7281336,0.7283476
40.2,4.993962,5.223891,-2.4988723,0.0049748174,-0.013892678,-8.511755e-05,0.0015145255,0.005977848,0.0016833654,0.0005211594374318971,-0.0008363931842284095,-0.00014694526858551778,0.0005654148,-0.0001419556,0.0006104571,15.3,-1.0,0.5000267,0.7284481,0.728319,0.72847605,0.7281718
40.300000000000004,4.993831,5.221128,-2.4995718,0.0037685214,-0.015702665,-0.00029315462,-0.01114584,-0.0028662847,0.005519483,0.000629205273866283,-0.0008270934422367479,3.2701008170223076e-06,0.0025339553,-0.001405302,-7.125156e-06,15.3,-1.0,0.5000267,0.7281919,0.7282911,0.72848445,0.7281769
40.400000000000006,4.9937387,5.217855,-2.4998844,0.0028917477,-0.017298331,-0.00030263903,-0.0016663929,0.011641136,0.0051595266,0.0008657321594536085,-0.0009295903856964963,0.00011099908991344016,0.0035917214,-0.0013470305,0.00035755063,15.3,-1.0,0.5000267,0.72815484,0.7282571,0.7281894,0.7285282
40.5,4.994115,5.214788,-2.4999201,0.0026361665,-0.018488154,-0.00017783484,-0.008837818,0.007453245,3.073364e-05,0.0011928330805776562,-0.0010607847894538508,0.00018563979340904506,0.005154553,-0.0007905313,0.00081308646,15.3,-1.0,0.5000267,0.72851646,0.7278786,0.72818035,0.7286894
40.6,4.9949393,5.2123356,-2.4991477,0.0029461975,-0.018316561,0.00019166639,-0.006833778,0.015233511,-0.005579553,0.0014908773836237745,-0.0011546890079980067,0.00020612456101028697,0.0014114789,0.0005327435,0.0005888496,15.3,-1.0,0.5000267,0.72776204,0.72883624,0.72863007,0.72847056
40.7,4.9963727,5.211411,-2.498107,0.00359256,-0.017144531,0.0005117233,0.0015430063,0.012645242,-7.776543e-05,0.0016849108597735292,-0.00116496126680578,0.00022024293503191387,0.0012296102,0.00063587265,0.0007774105,15.3,-1.0,0.5000267,0.72839713,0.7282623,0.72853565,0.7288617
40.800000000000004,4.998225,5.2120137,-2.49674,0.004318632,-0.014631416,0.0006459016,-0.004866485,0.0019474854,0.002779532,0.0017148957545893705,-0.0011178246373264682,0.00015167706752984287,-0.0014359101,0.0006352741,0.0004954187,15.3,-1.0,0.5000267,0.72868294,0.7282546,0.7287579,0.7285909
40.900000000000006,5.0003557,5.213958,-2.4950962,0.005272473,-0.0112398155,0.0006942518,0.0055364245,0.008668503,-0.0069788652,0.0015164097616053402,-0.0009864865134143006,5.4260692211368444e-05,-0.0040401323,0.0014808422,-2.5635847e-05,15.3,-1.0,0.5000267,0.72862875,0.72858953,0.7286137,0.7285746
41.0,5.001983,5.21651,-2.4936478,0.005711647,-0.00802282,0.00062812894,-0.004241276,-0.0036174646,-0.009649898,0.001182793550222966,-0.0008311251250549527,-4.657160781441716e-05,-0.0053126425,0.0014692392,-0.00034719758,15.3,-1.0,0.5000267,0.7287197,0.7286792,0.7284783,0.72846735
41.1,5.0028877,5.2201486,-2.4924235,0.00504144,-0.004203071,0.00059053634,-0.0095394375,0.0007785249,-0.0098911105,0.0006830723951945092,-0.0006720332273950194,-6.568879821094291e-05,-0.0056705824,-7.6215336e-05,-0.0005613309,15.3,-1.0,0.5000267,0.7288989,0.72850585,0.728508,0.72848976
41.2,5.00324,5.223863,-2.4913278,0.0042896722,-0.0013739803,0.0004524701,-0.008142163,-0.0062570795,-0.001609791,0.00010469463460986993,-0.0006671207283234891,-5.8905928723224484e-05,-0.0061197174,-0.000323028,-0.000114810595,15.3,-1.0,0.5000267,0.72862446,0.72865415,0.7281958,0.72873425
41.300000000000004,5.0035095,5.227522,-2.4902947,0.0035482394,0.0006730363,0.0004583508,-0.00012711665,-0.0058127935,-0.0039143483,-0.0004319012082871644,-0.0007327889443454428,-4.6789362313036075e-05,-0.0052417484,6.3104244e-06,-0.0005945196,15.3,-1.0,0.5000267,0.72835696,0.7289475,0.72817606,0.72876555
41.400000000000006,5.0036626,5.2301426,-2.4892218,0.0029711786,0.0015089806,0.00050043094,-0.009271069,-0.02208774,0.0007813796,-0.0008714433309166711,-0.0008370711446802065,3.094383540885938e-06,-0.003920713,-0.0017641785,0.0006820869,15.3,-1.0,0.5000267,0.7289062,0.7282677,0.7288383,0.72830987
